date	time	group	subject	build	blocknum	trialnum	blockcode	trialcode	pretrialpause	posttrialpause	windowcenter	trialduration	trialtimeout	blocktimeout	response	correct	latency	inwindow	stimulusnumber1	stimulusitem1	stimulusvpos1	stimulushpos1	stimulusonset1	stimulusnumber2	stimulusitem2	stimulusvpos2	stimulushpos2	stimulusonset2	stimulusnumber3	stimulusitem3	stimulusvpos3	stimulushpos3	stimulusonset3
042921	14:36:43	1	1	4.0.10.0	1	1	stopSignalPosition	focus	0	0	0	5000	0	0	0	0	5000	0	1	background-full.jpg	50pct	50pct	5	1	0	93,5pct	53,5pct	5	0	0	0	0	0
042921	14:36:43	1	1	4.0.10.0	1	2	stopSignalPosition	stop	0	0	0	0	0	0	0	0	0	0	1	background-full.jpg	50pct	50pct	1	1	0	93,5pct	53,5pct	1	1	deer.jpg	50pct	50pct	1
042921	14:36:43	1	1	4.0.10.0	1	3	stopSignalPosition	stopsignal	0	0	0	0	0	0	30	1	57	0	1	stop.jpg	75	75	2	0	0	0	0	0	0	0	0	0	0
042921	14:36:43	1	1	4.0.10.0	1	4	stopSignalPosition	focus	0	0	0	5000	0	0	0	0	5000	0	1	background-full.jpg	50pct	50pct	1	1	-1	93,5pct	53,5pct	1	0	0	0	0	0
042921	14:36:43	1	1	4.0.10.0	1	5	stopSignalPosition	stop	0	0	0	0	0	0	0	0	0	0	1	background-full.jpg	50pct	50pct	1	1	-1	93,5pct	53,5pct	1	2	tank.jpg	50pct	50pct	1
042921	14:36:43	1	1	4.0.10.0	1	6	stopSignalPosition	stopsignal	0	0	0	0	0	0	32	1	51	0	1	stop.jpg	75	75	2	0	0	0	0	0	0	0	0	0	0
042921	14:36:43	1	1	4.0.10.0	1	7	stopSignalPosition	focus	0	0	0	5000	0	0	0	0	5000	0	1	background-full.jpg	50pct	50pct	1	1	-2	93,5pct	53,5pct	1	0	0	0	0	0
042921	14:36:43	1	1	4.0.10.0	1	8	stopSignalPosition	stim	0	0	0	0	0	0	32	1	55	0	1	background-full.jpg	50pct	50pct	1	1	-1	93,5pct	53,5pct	1	1	deer.jpg	50pct	50pct	1
042921	14:36:43	1	1	4.0.10.0	1	9	stopSignalPosition	focus	0	0	0	5000	0	0	0	0	5000	0	1	background-full.jpg	50pct	50pct	1	1	-1	93,5pct	53,5pct	1	0	0	0	0	0
042921	14:36:43	1	1	4.0.10.0	1	10	stopSignalPosition	stop	0	0	0	0	0	0	0	0	0	0	1	background-full.jpg	50pct	50pct	1	1	-1	93,5pct	53,5pct	1	2	tank.jpg	50pct	50pct	1
042921	14:36:43	1	1	4.0.10.0	1	11	stopSignalPosition	stopsignal	0	0	0	0	0	0	32	1	53	0	1	stop.jpg	75	75	2	0	0	0	0	0	0	0	0	0	0
042921	14:36:43	1	1	4.0.10.0	1	12	stopSignalPosition	focus	0	0	0	5000	0	0	0	0	5000	0	1	background-full.jpg	50pct	50pct	1	1	-2	93,5pct	53,5pct	1	0	0	0	0	0
042921	14:36:43	1	1	4.0.10.0	1	13	stopSignalPosition	stim	0	0	0	0	0	0	30	0	61	0	1	background-full.jpg	50pct	50pct	1	1	-3	93,5pct	53,5pct	1	1	deer.jpg	50pct	50pct	1
042921	14:36:43	1	1	4.0.10.0	1	14	stopSignalPosition	focus	0	0	0	5000	0	0	0	0	5000	0	1	background-full.jpg	50pct	50pct	1	1	-3	93,5pct	53,5pct	1	0	0	0	0	0
042921	14:36:43	1	1	4.0.10.0	1	15	stopSignalPosition	stim	0	0	0	0	0	0	30	1	37	0	1	background-full.jpg	50pct	50pct	1	1	-2	93,5pct	53,5pct	1	2	tank.jpg	50pct	50pct	1
042921	14:36:43	1	1	4.0.10.0	1	16	stopSignalPosition	focus	0	0	0	5000	0	0	0	0	5000	0	1	background-full.jpg	50pct	50pct	1	1	-2	93,5pct	53,5pct	1	0	0	0	0	0
042921	14:36:43	1	1	4.0.10.0	1	17	stopSignalPosition	stim	0	0	0	0	0	0	30	1	53	0	1	background-full.jpg	50pct	50pct	1	1	-1	93,5pct	53,5pct	1	2	tank.jpg	50pct	50pct	1
042921	14:36:43	1	1	4.0.10.0	1	18	stopSignalPosition	focus	0	0	0	5000	0	0	0	0	5000	0	1	background-full.jpg	50pct	50pct	1	1	-1	93,5pct	53,5pct	1	0	0	0	0	0
042921	14:36:43	1	1	4.0.10.0	1	19	stopSignalPosition	stim	0	0	0	0	0	0	30	0	47	0	1	background-full.jpg	50pct	50pct	1	1	-2	93,5pct	53,5pct	1	1	deer.jpg	50pct	50pct	1
042921	14:36:43	1	1	4.0.10.0	1	20	stopSignalPosition	focus	0	0	0	5000	0	0	0	0	5000	0	1	background-full.jpg	50pct	50pct	1	1	-2	93,5pct	53,5pct	1	0	0	0	0	0
042921	14:36:43	1	1	4.0.10.0	1	21	stopSignalPosition	stim	0	0	0	0	0	0	30	0	46	0	1	background-full.jpg	50pct	50pct	1	1	-3	93,5pct	53,5pct	1	1	deer.jpg	50pct	50pct	1
042921	14:36:43	1	1	4.0.10.0	1	22	stopSignalPosition	focus	0	0	0	5000	0	0	0	0	5000	0	1	background-full.jpg	50pct	50pct	1	1	-3	93,5pct	53,5pct	1	0	0	0	0	0
042921	14:36:43	1	1	4.0.10.0	1	23	stopSignalPosition	stim	0	0	0	0	0	0	32	0	24	0	1	background-full.jpg	50pct	50pct	1	1	-4	93,5pct	53,5pct	1	2	tank.jpg	50pct	50pct	1
042921	14:36:43	1	1	4.0.10.0	1	24	stopSignalPosition	focus	0	0	0	5000	0	0	0	0	5000	0	1	background-full.jpg	50pct	50pct	1	1	-4	93,5pct	53,5pct	1	0	0	0	0	0
