date	time	group	subject	build	blocknum	trialnum	blockcode	trialcode	pretrialpause	posttrialpause	trialduration	trialtimeout	response	correct	latency	stimulusnumber1	stimulusitem1	stimulusonset1	stimulusnumber2	stimulusitem2	stimulusonset2	stimulusnumber3	stimulusitem3	stimulusonset3
043021	08:29:34	1	1	5.0.14.0	1	2	Practice	stim	0	0	0	0	30	1	567	1	background-full.jpg	1	1	1	1	2	tank.jpg	1
043021	08:29:34	1	1	5.0.14.0	1	4	Practice	stim	0	0	0	0	32	1	554	1	background-full.jpg	1	1	2	1	1	deer.jpg	1
043021	08:29:34	1	1	5.0.14.0	1	6	Practice	stim	0	0	0	0	32	1	566	1	background-full.jpg	1	1	3	1	1	deer.jpg	1
043021	08:29:34	1	1	5.0.14.0	1	8	Practice	stop	0	0	0	0	0	0	281	1	background-full.jpg	1	1	3	1	1	deer.jpg	1
043021	08:29:34	1	1	5.0.14.0	1	9	Practice	stopsignal	0	0	0	0	32	1	230	1	stop.jpg	1	0	0	0	0	0	0
043021	08:29:34	1	1	5.0.14.0	1	11	Practice	stop	0	0	0	0	0	0	141	1	background-full.jpg	1	1	2	1	1	deer.jpg	1
043021	08:29:34	1	1	5.0.14.0	1	12	Practice	stopsignal	0	0	0	0	0	0	609	1	stop.jpg	1	0	0	0	0	0	0
043021	08:29:34	1	1	5.0.14.0	1	14	Practice	stop	0	0	0	0	0	0	281	1	background-full.jpg	1	1	3	1	2	tank.jpg	1
043021	08:29:34	1	1	5.0.14.0	1	15	Practice	stopsignal	0	0	0	0	0	0	469	1	stop.jpg	1	0	0	0	0	0	0
043021	08:29:34	1	1	5.0.14.0	1	17	Practice	stim	0	0	0	0	0	0	750	1	background-full.jpg	2	1	3	2	2	tank.jpg	2
043021	08:29:34	1	1	5.0.14.0	1	19	Practice	stim	0	0	0	0	30	1	541	1	background-full.jpg	1	1	4	1	2	tank.jpg	1
043021	08:29:34	1	1	5.0.14.0	1	21	Practice	stim	0	0	0	0	30	0	704	1	background-full.jpg	1	1	3	1	1	deer.jpg	1
043021	08:29:34	1	1	5.0.14.0	1	23	Practice	stim	0	0	0	0	30	0	558	1	background-full.jpg	1	1	2	1	1	deer.jpg	1
043021	08:29:34	1	1	5.0.14.0	2	1	stopSignalPosition	focus	0	0	3000	0	0	0	3000	1	background-full.jpg	1	1	2	1	0	0	0
043021	08:29:34	1	1	5.0.14.0	2	2	stopSignalPosition	stop	0	0	0	0	0	0	557	1	background-full.jpg	1	1	2	1	2	tank.jpg	1
043021	08:29:34	1	1	5.0.14.0	2	3	stopSignalPosition	stopsignal	0	0	0	0	0	0	193	1	stop.jpg	1	0	0	0	0	0	0
043021	08:29:34	1	1	5.0.14.0	2	4	stopSignalPosition	focus	0	0	4000	0	0	0	4000	1	background-full.jpg	1	1	3	1	0	0	0
043021	08:29:34	1	1	5.0.14.0	2	5	stopSignalPosition	stop	0	0	0	0	0	0	279	1	background-full.jpg	1	1	3	1	1	deer.jpg	1
043021	08:29:34	1	1	5.0.14.0	2	6	stopSignalPosition	stopsignal	0	0	0	0	0	0	472	1	stop.jpg	1	0	0	0	0	0	0
043021	08:29:34	1	1	5.0.14.0	2	7	stopSignalPosition	focus	0	0	3500	0	0	0	3500	1	background-full.jpg	1	1	4	1	0	0	0
043021	08:29:34	1	1	5.0.14.0	2	8	stopSignalPosition	stim	0	0	0	0	0	0	750	1	background-full.jpg	1	1	3	1	1	deer.jpg	1
043021	08:29:34	1	1	5.0.14.0	2	9	stopSignalPosition	focus	0	0	3000	0	0	0	3000	1	background-full.jpg	1	1	3	1	0	0	0
043021	08:29:34	1	1	5.0.14.0	2	10	stopSignalPosition	stim	0	0	0	0	0	0	750	1	background-full.jpg	1	1	2	1	1	deer.jpg	1
043021	08:29:34	1	1	5.0.14.0	2	11	stopSignalPosition	focus	0	0	5000	0	0	0	5000	1	background-full.jpg	1	1	2	1	0	0	0
043021	08:29:34	1	1	5.0.14.0	2	12	stopSignalPosition	stim	0	0	0	0	0	0	750	1	background-full.jpg	1	1	1	1	1	deer.jpg	1
043021	08:29:34	1	1	5.0.14.0	2	13	stopSignalPosition	focus	0	0	5000	0	0	0	5000	1	background-full.jpg	1	1	1	1	0	0	0
043021	08:29:34	1	1	5.0.14.0	2	14	stopSignalPosition	stim	0	0	0	0	0	0	750	1	background-full.jpg	1	1	0	1	1	deer.jpg	1
043021	08:29:34	1	1	5.0.14.0	2	15	stopSignalPosition	focus	0	0	3000	0	0	0	3000	1	background-full.jpg	1	1	0	1	0	0	0
043021	08:29:34	1	1	5.0.14.0	2	16	stopSignalPosition	stim	0	0	0	0	0	0	750	1	background-full.jpg	1	1	-1	1	2	tank.jpg	1
043021	08:29:34	1	1	5.0.14.0	2	17	stopSignalPosition	focus	0	0	4000	0	0	0	4000	1	background-full.jpg	1	1	-1	1	0	0	0
043021	08:29:34	1	1	5.0.14.0	2	18	stopSignalPosition	stim	0	0	0	0	0	0	750	1	background-full.jpg	1	1	-2	1	2	tank.jpg	1
043021	08:29:34	1	1	5.0.14.0	2	19	stopSignalPosition	focus	0	0	4500	0	0	0	4500	1	background-full.jpg	1	1	-2	1	0	0	0
043021	08:29:34	1	1	5.0.14.0	2	20	stopSignalPosition	stop	0	0	0	0	0	0	139	1	background-full.jpg	1	1	-2	1	2	tank.jpg	1
043021	08:29:34	1	1	5.0.14.0	2	21	stopSignalPosition	stopsignal	0	0	0	0	0	0	611	1	stop.jpg	1	0	0	0	0	0	0
043021	08:29:34	1	1	5.0.14.0	2	22	stopSignalPosition	focus	0	0	3000	0	0	0	3000	1	background-full.jpg	1	1	-1	1	0	0	0
043021	08:29:34	1	1	5.0.14.0	2	23	stopSignalPosition	stim	0	0	0	0	0	0	750	1	background-full.jpg	1	1	-2	1	1	deer.jpg	1
043021	08:29:34	1	1	5.0.14.0	2	24	stopSignalPosition	focus	0	0	4500	0	0	0	4500	1	background-full.jpg	1	1	-2	1	0	0	0
043021	08:29:34	1	1	5.0.14.0	3	1	Duration	focus	0	0	4000	0	0	0	4000	1	background-full.jpg	2	1	-2	2	0	0	0
043021	08:29:34	1	1	5.0.14.0	3	2	Duration	stim	0	0	0	0	0	0	650	1	background-full.jpg	1	1	-3	1	2	tank.jpg	1
043021	08:32:47	1	1	5.0.14.0	1	2	Practice	stim	0	0	0	0	32	1	661	1	background-full.jpg	1	1	1	1	1	deer.jpg	1
043021	08:32:47	1	1	5.0.14.0	1	4	Practice	stim	0	0	0	0	30	1	436	1	background-full.jpg	1	1	2	1	2	tank.jpg	1
043021	08:32:47	1	1	5.0.14.0	1	6	Practice	stim	0	0	0	0	0	0	750	1	background-full.jpg	1	1	1	1	1	deer.jpg	1
043021	08:32:47	1	1	5.0.14.0	1	8	Practice	stim	0	0	0	0	0	0	750	1	background-full.jpg	1	1	0	1	2	tank.jpg	1
043021	08:32:47	1	1	5.0.14.0	1	10	Practice	stop	0	0	0	0	0	0	137	1	background-full.jpg	1	1	0	1	1	deer.jpg	1
043021	08:32:47	1	1	5.0.14.0	1	11	Practice	stopsignal	0	0	0	0	0	0	613	1	stop.jpg	1	0	0	0	0	0	0
043021	08:32:47	1	1	5.0.14.0	1	13	Practice	stop	0	0	0	0	0	0	549	1	background-full.jpg	1	1	1	1	1	deer.jpg	1
043021	08:32:47	1	1	5.0.14.0	1	14	Practice	stopsignal	0	0	0	0	0	0	202	1	stop.jpg	1	0	0	0	0	0	0
043021	08:32:47	1	1	5.0.14.0	1	16	Practice	stim	0	0	0	0	0	0	750	1	background-full.jpg	1	1	1	1	2	tank.jpg	1
043021	08:32:47	1	1	5.0.14.0	1	18	Practice	stim	0	0	0	0	0	0	750	1	background-full.jpg	1	1	0	1	2	tank.jpg	1
043021	08:32:47	1	1	5.0.14.0	1	20	Practice	stop	0	0	0	0	0	0	549	1	background-full.jpg	1	1	0	1	1	deer.jpg	1
043021	08:32:47	1	1	5.0.14.0	1	21	Practice	stopsignal	0	0	0	0	0	0	202	1	stop.jpg	1	0	0	0	0	0	0
043021	08:32:47	1	1	5.0.14.0	1	23	Practice	stim	0	0	0	0	0	0	750	1	background-full.jpg	1	1	0	1	1	deer.jpg	1
043021	08:32:47	1	1	5.0.14.0	2	1	stopSignalPosition	focus	0	0	3000	0	0	0	3000	1	background-full.jpg	1	1	0	1	0	0	0
043021	08:32:47	1	1	5.0.14.0	2	2	stopSignalPosition	stim	0	0	0	0	0	0	750	1	background-full.jpg	1	1	-1	1	1	deer.jpg	1
043021	08:32:47	1	1	5.0.14.0	2	3	stopSignalPosition	focus	0	0	3000	0	0	0	3000	1	background-full.jpg	1	1	-1	1	0	0	0
043021	08:32:47	1	1	5.0.14.0	2	4	stopSignalPosition	stim	0	0	0	0	0	0	750	1	background-full.jpg	1	1	-2	1	1	deer.jpg	1
043021	08:32:47	1	1	5.0.14.0	2	5	stopSignalPosition	focus	0	0	4500	0	0	0	4500	1	background-full.jpg	1	1	-2	1	0	0	0
043021	08:32:47	1	1	5.0.14.0	2	6	stopSignalPosition	stim	0	0	0	0	0	0	750	1	background-full.jpg	1	1	-3	1	2	tank.jpg	1
043021	08:32:47	1	1	5.0.14.0	2	7	stopSignalPosition	focus	0	0	4500	0	0	0	4500	1	background-full.jpg	1	1	-3	1	0	0	0
043021	08:32:47	1	1	5.0.14.0	2	8	stopSignalPosition	stim	0	0	0	0	0	0	750	1	background-full.jpg	1	1	-4	1	2	tank.jpg	1
043021	08:32:47	1	1	5.0.14.0	2	9	stopSignalPosition	focus	0	0	4500	0	0	0	4500	1	background-full.jpg	1	1	-4	1	0	0	0
043021	08:32:47	1	1	5.0.14.0	2	10	stopSignalPosition	stop	0	0	0	0	0	0	275	1	background-full.jpg	1	1	-4	1	1	deer.jpg	1
043021	08:32:47	1	1	5.0.14.0	2	11	stopSignalPosition	stopsignal	0	0	0	0	0	0	476	1	stop.jpg	1	0	0	0	0	0	0
043021	08:32:47	1	1	5.0.14.0	2	12	stopSignalPosition	focus	0	0	4000	0	0	0	4000	1	background-full.jpg	1	1	-3	1	0	0	0
043021	08:32:47	1	1	5.0.14.0	2	13	stopSignalPosition	stop	0	0	0	0	0	0	137	1	background-full.jpg	1	1	-3	1	1	deer.jpg	1
043021	08:32:47	1	1	5.0.14.0	2	14	stopSignalPosition	stopsignal	0	0	0	0	0	0	613	1	stop.jpg	1	0	0	0	0	0	0
043021	08:32:47	1	1	5.0.14.0	2	15	stopSignalPosition	focus	0	0	4500	0	0	0	4500	1	background-full.jpg	1	1	-2	1	0	0	0
043021	08:32:47	1	1	5.0.14.0	2	16	stopSignalPosition	stim	0	0	0	0	0	0	750	1	background-full.jpg	1	1	-3	1	1	deer.jpg	1
043021	08:32:47	1	1	5.0.14.0	2	17	stopSignalPosition	focus	0	0	5000	0	0	0	5000	1	background-full.jpg	1	1	-3	1	0	0	0
043021	08:32:47	1	1	5.0.14.0	2	18	stopSignalPosition	stim	0	0	0	0	0	0	750	1	background-full.jpg	1	1	-4	1	2	tank.jpg	1
043021	08:32:47	1	1	5.0.14.0	2	19	stopSignalPosition	focus	0	0	4000	0	0	0	4000	1	background-full.jpg	1	1	-4	1	0	0	0
043021	08:32:47	1	1	5.0.14.0	2	20	stopSignalPosition	stim	0	0	0	0	0	0	750	1	background-full.jpg	1	1	-5	1	1	deer.jpg	1
043021	08:32:47	1	1	5.0.14.0	2	21	stopSignalPosition	focus	0	0	4000	0	0	0	4000	1	background-full.jpg	1	1	-5	1	0	0	0
043021	08:32:47	1	1	5.0.14.0	2	22	stopSignalPosition	stim	0	0	0	0	0	0	750	1	background-full.jpg	1	1	-6	1	2	tank.jpg	1
043021	08:32:47	1	1	5.0.14.0	2	23	stopSignalPosition	focus	0	0	4000	0	0	0	4000	1	background-full.jpg	1	1	-6	1	0	0	0
043021	08:32:47	1	1	5.0.14.0	3	1	Duration	focus	0	0	4000	0	0	0	4000	1	background-full.jpg	1	1	-6	1	0	0	0
043021	08:32:47	1	1	5.0.14.0	3	2	Duration	stop	0	0	0	0	0	0	238	1	background-full.jpg	1	1	-6	1	1	deer.jpg	1
043021	08:32:47	1	1	5.0.14.0	3	3	Duration	stopsignal	0	0	0	0	0	0	412	1	stop.jpg	1	0	0	0	0	0	0
043021	08:36:55	1	1	5.0.14.0	1	2	Practice	stim	0	0	0	0	32	1	583	1	background-full.jpg	2	1	1	2	1	deer.jpg	2
043021	08:36:55	1	1	5.0.14.0	1	4	Practice	stim	0	0	0	0	32	1	466	1	background-full.jpg	1	1	2	1	1	deer.jpg	1
043021	08:36:55	1	1	5.0.14.0	1	6	Practice	stim	0	0	0	0	32	1	515	1	background-full.jpg	1	1	3	1	1	deer.jpg	1
043021	08:36:55	1	1	5.0.14.0	1	8	Practice	stim	0	0	0	0	32	1	422	1	background-full.jpg	1	1	4	1	1	deer.jpg	1
043021	08:36:55	1	1	5.0.14.0	1	10	Practice	stim	0	0	0	0	32	1	677	1	background-full.jpg	1	1	5	1	1	deer.jpg	1
043021	08:36:55	1	1	5.0.14.0	1	12	Practice	stop	0	0	0	0	32	1	434	1	background-full.jpg	1	1	4	1	1	deer.jpg	1
043021	08:36:55	1	1	5.0.14.0	1	14	Practice	stim	0	0	0	0	30	1	612	1	background-full.jpg	2	1	5	2	2	tank.jpg	2
043021	08:36:55	1	1	5.0.14.0	1	16	Practice	stim	0	0	0	0	30	1	719	1	background-full.jpg	1	1	6	1	2	tank.jpg	1
043021	08:36:55	1	1	5.0.14.0	1	18	Practice	stop	0	0	0	0	0	0	521	1	background-full.jpg	1	1	6	1	1	deer.jpg	1
043021	08:36:55	1	1	5.0.14.0	1	19	Practice	stopsignal	0	0	0	0	0	0	229	1	stop.jpg	2	0	0	0	0	0	0
043021	08:36:55	1	1	5.0.14.0	1	21	Practice	stop	0	0	0	0	0	0	261	1	background-full.jpg	1	1	7	1	1	deer.jpg	1
043021	08:36:55	1	1	5.0.14.0	1	22	Practice	stopsignal	0	0	0	0	0	0	489	1	stop.jpg	1	0	0	0	0	0	0
043021	08:36:55	1	1	5.0.14.0	2	1	stopSignalPosition	focus	0	0	5000	0	0	0	5000	1	background-full.jpg	1	1	8	1	0	0	0
043021	08:36:55	1	1	5.0.14.0	2	2	stopSignalPosition	stop	0	0	0	0	0	0	286	1	background-full.jpg	1	1	8	1	2	tank.jpg	1
043021	08:36:55	1	1	5.0.14.0	2	3	stopSignalPosition	stopsignal	0	0	0	0	0	0	465	1	stop.jpg	1	0	0	0	0	0	0
043021	08:36:55	1	1	5.0.14.0	2	4	stopSignalPosition	focus	0	0	5000	0	0	0	5000	1	background-full.jpg	1	1	9	1	0	0	0
043021	08:36:55	1	1	5.0.14.0	2	5	stopSignalPosition	stim	0	0	0	0	0	0	750	1	background-full.jpg	1	1	8	1	1	deer.jpg	1
043021	08:36:55	1	1	5.0.14.0	2	6	stopSignalPosition	focus	0	0	4500	0	0	0	4500	1	background-full.jpg	1	1	8	1	0	0	0
043021	08:36:55	1	1	5.0.14.0	2	7	stopSignalPosition	stim	0	0	0	0	32	1	420	1	background-full.jpg	1	1	9	1	1	deer.jpg	1
043021	08:36:55	1	1	5.0.14.0	2	8	stopSignalPosition	focus	0	0	3500	0	0	0	3500	1	background-full.jpg	1	1	9	1	0	0	0
043021	08:36:55	1	1	5.0.14.0	2	9	stopSignalPosition	stim	0	0	0	0	32	1	436	1	background-full.jpg	1	1	10	1	1	deer.jpg	1
043021	08:36:55	1	1	5.0.14.0	2	10	stopSignalPosition	focus	0	0	3000	0	0	0	3000	1	background-full.jpg	1	1	10	1	0	0	0
043021	08:36:55	1	1	5.0.14.0	2	11	stopSignalPosition	stim	0	0	0	0	32	1	658	1	background-full.jpg	1	1	11	1	1	deer.jpg	1
043021	08:36:55	1	1	5.0.14.0	2	12	stopSignalPosition	focus	0	0	4000	0	0	0	4000	1	background-full.jpg	1	1	11	1	0	0	0
043021	08:36:55	1	1	5.0.14.0	2	13	stopSignalPosition	stim	0	0	0	0	30	1	528	1	background-full.jpg	1	1	12	1	2	tank.jpg	1
043021	08:36:55	1	1	5.0.14.0	2	14	stopSignalPosition	focus	0	0	3500	0	0	0	3500	1	background-full.jpg	1	1	12	1	0	0	0
043021	08:36:55	1	1	5.0.14.0	2	15	stopSignalPosition	stop	0	0	0	0	0	0	286	1	background-full.jpg	1	1	12	1	2	tank.jpg	1
043021	08:36:55	1	1	5.0.14.0	2	16	stopSignalPosition	stopsignal	0	0	0	0	0	0	465	1	stop.jpg	1	0	0	0	0	0	0
043021	08:36:55	1	1	5.0.14.0	2	17	stopSignalPosition	focus	0	0	3000	0	0	0	3000	1	background-full.jpg	1	1	13	1	0	0	0
043021	08:36:55	1	1	5.0.14.0	2	18	stopSignalPosition	stop	0	0	0	0	0	0	571	1	background-full.jpg	1	1	13	1	1	deer.jpg	1
043021	08:36:55	1	1	5.0.14.0	2	19	stopSignalPosition	stopsignal	0	0	0	0	32	1	17	1	stop.jpg	1	0	0	0	0	0	0
043021	08:36:55	1	1	5.0.14.0	2	20	stopSignalPosition	focus	0	0	4500	0	0	0	4500	1	background-full.jpg	1	1	12	1	0	0	0
043021	08:36:55	1	1	5.0.14.0	2	21	stopSignalPosition	stim	0	0	0	0	30	1	567	1	background-full.jpg	1	1	13	1	2	tank.jpg	1
043021	08:36:55	1	1	5.0.14.0	2	22	stopSignalPosition	focus	0	0	3500	0	0	0	3500	1	background-full.jpg	1	1	13	1	0	0	0
043021	08:36:55	1	1	5.0.14.0	2	23	stopSignalPosition	stim	0	0	0	0	32	1	677	1	background-full.jpg	1	1	14	1	1	deer.jpg	1
043021	08:36:55	1	1	5.0.14.0	2	24	stopSignalPosition	focus	0	0	5000	0	0	0	5000	1	background-full.jpg	1	1	14	1	0	0	0
043021	08:36:55	1	1	5.0.14.0	3	1	Duration	focus	0	0	3500	0	0	0	3500	1	background-full.jpg	1	1	14	1	0	0	0
043021	08:36:55	1	1	5.0.14.0	3	2	Duration	stim	0	0	0	0	32	1	449	1	background-full.jpg	1	1	15	1	1	deer.jpg	1
043021	08:36:55	1	1	5.0.14.0	3	3	Duration	focus	0	0	4000	0	0	0	4000	1	background-full.jpg	1	1	15	1	0	0	0
043021	08:36:55	1	1	5.0.14.0	3	4	Duration	stop	0	0	0	0	0	0	243	1	background-full.jpg	1	1	15	1	2	tank.jpg	1
043021	08:36:55	1	1	5.0.14.0	3	5	Duration	stopsignal	0	0	0	0	30	1	297	1	stop.jpg	1	0	0	0	0	0	0
043021	08:36:55	1	1	5.0.14.0	3	6	Duration	focus	0	0	3000	0	0	0	3000	1	background-full.jpg	1	1	14	1	0	0	0
043021	08:36:55	1	1	5.0.14.0	3	7	Duration	stim	0	0	0	0	32	0	498	1	background-full.jpg	1	1	13	1	2	tank.jpg	1
043021	08:36:55	1	1	5.0.14.0	3	8	Duration	focus	0	0	4500	0	0	0	4500	1	background-full.jpg	1	1	13	1	0	0	0
043021	08:36:55	1	1	5.0.14.0	3	9	Duration	stim	0	0	0	0	32	1	496	1	background-full.jpg	1	1	14	1	1	deer.jpg	1
043021	08:36:55	1	1	5.0.14.0	3	10	Duration	focus	0	0	4000	0	0	0	4000	1	background-full.jpg	1	1	14	1	0	0	0
043021	08:36:55	1	1	5.0.14.0	3	11	Duration	stop	0	0	0	0	0	0	485	1	background-full.jpg	1	1	14	1	2	tank.jpg	1
043021	08:36:55	1	1	5.0.14.0	3	12	Duration	stopsignal	0	0	0	0	30	1	41	1	stop.jpg	1	0	0	0	0	0	0
043021	08:36:55	1	1	5.0.14.0	3	13	Duration	focus	0	0	3500	0	0	0	3500	1	background-full.jpg	1	1	13	1	0	0	0
043021	08:36:55	1	1	5.0.14.0	3	14	Duration	stop	0	0	0	0	0	0	243	1	background-full.jpg	1	1	13	1	2	tank.jpg	1
043021	08:36:55	1	1	5.0.14.0	3	15	Duration	stopsignal	0	0	0	0	0	0	407	1	stop.jpg	1	0	0	0	0	0	0
043021	08:36:55	1	1	5.0.14.0	3	16	Duration	focus	0	0	4500	0	0	0	4500	1	background-full.jpg	1	1	14	1	0	0	0
043021	08:36:55	1	1	5.0.14.0	3	17	Duration	stim	0	0	0	0	30	1	394	1	background-full.jpg	1	1	15	1	2	tank.jpg	1
043021	08:36:55	1	1	5.0.14.0	3	18	Duration	focus	0	0	4500	0	0	0	4500	1	background-full.jpg	1	1	15	1	0	0	0
043021	08:36:55	1	1	5.0.14.0	3	19	Duration	stim	0	0	0	0	30	1	530	1	background-full.jpg	1	1	16	1	2	tank.jpg	1
043021	08:36:55	1	1	5.0.14.0	3	20	Duration	focus	0	0	3500	0	0	0	3500	1	background-full.jpg	1	1	16	1	0	0	0
043021	08:36:55	1	1	5.0.14.0	3	21	Duration	stim	0	0	0	0	30	1	548	1	background-full.jpg	1	1	17	1	2	tank.jpg	1
043021	08:36:55	1	1	5.0.14.0	3	22	Duration	focus	0	0	4000	0	0	0	4000	1	background-full.jpg	1	1	17	1	0	0	0
043021	08:36:55	1	1	5.0.14.0	3	23	Duration	stim	0	0	0	0	30	1	416	1	background-full.jpg	1	1	18	1	2	tank.jpg	1
043021	08:36:55	1	1	5.0.14.0	3	24	Duration	focus	0	0	4500	0	0	0	4500	1	background-full.jpg	1	1	18	1	0	0	0
043021	15:42:47	1	1	5.0.14.0	1	2	Practice	stim	0	0	0	0	32	1	601	1	background-full.jpg	1	1	1	1	1	deer.jpg	1
043021	15:42:47	1	1	5.0.14.0	1	4	Practice	stim	0	0	0	0	32	0	498	1	background-full.jpg	1	1	0	1	2	tank.jpg	1
043021	15:42:47	1	1	5.0.14.0	1	6	Practice	stim	0	0	0	0	32	1	407	1	background-full.jpg	1	1	1	1	1	deer.jpg	1
043021	15:42:47	1	1	5.0.14.0	1	8	Practice	stop	0	0	0	0	0	0	252	1	background-full.jpg	1	1	1	1	1	deer.jpg	1
043021	15:42:47	1	1	5.0.14.0	1	9	Practice	stopsignal	0	0	0	0	0	0	498	1	stop.jpg	1	0	0	0	0	0	0
043021	15:42:47	1	1	5.0.14.0	1	11	Practice	stim	0	0	0	0	32	1	663	1	background-full.jpg	1	1	3	1	1	deer.jpg	1
043021	15:42:47	1	1	5.0.14.0	1	13	Practice	stim	0	0	0	0	32	1	586	1	background-full.jpg	1	1	4	1	1	deer.jpg	1
043021	15:42:47	1	1	5.0.14.0	1	15	Practice	stop	0	0	0	0	0	0	252	1	background-full.jpg	1	1	4	1	1	deer.jpg	1
043021	15:42:47	1	1	5.0.14.0	1	16	Practice	stopsignal	0	0	0	0	0	0	498	1	stop.jpg	1	0	0	0	0	0	0
043021	15:42:47	1	1	5.0.14.0	1	18	Practice	stop	0	0	0	0	0	0	504	1	background-full.jpg	1	1	5	1	1	deer.jpg	1
043021	15:42:47	1	1	5.0.14.0	1	19	Practice	stopsignal	0	0	0	0	32	1	33	1	stop.jpg	1	0	0	0	0	0	0
043021	15:42:47	1	1	5.0.14.0	1	21	Practice	stim	0	0	0	0	32	1	605	1	background-full.jpg	1	1	5	1	1	deer.jpg	1
043021	15:42:47	1	1	5.0.14.0	1	23	Practice	stim	0	0	0	0	30	1	529	1	background-full.jpg	1	1	6	1	2	tank.jpg	1
043021	15:42:47	1	1	5.0.14.0	2	1	stopSignalPosition	focus	0	0	4500	0	0	0	4500	1	background-full.jpg	1	1	6	1	0	0	0
043021	15:42:47	1	1	5.0.14.0	2	2	stopSignalPosition	stim	0	0	0	0	32	1	565	1	background-full.jpg	1	1	7	1	1	deer.jpg	1
043021	15:42:47	1	1	5.0.14.0	2	3	stopSignalPosition	focus	0	0	5000	0	0	0	5000	1	background-full.jpg	1	1	7	1	0	0	0
043021	15:42:47	1	1	5.0.14.0	2	4	stopSignalPosition	stim	0	0	0	0	30	1	535	1	background-full.jpg	1	1	8	1	2	tank.jpg	1
043021	15:42:47	1	1	5.0.14.0	2	5	stopSignalPosition	focus	0	0	4500	0	0	0	4500	1	background-full.jpg	1	1	8	1	0	0	0
043021	15:42:47	1	1	5.0.14.0	2	6	stopSignalPosition	stop	0	0	0	0	0	0	141	1	background-full.jpg	1	1	8	1	2	tank.jpg	1
043021	15:42:47	1	1	5.0.14.0	2	7	stopSignalPosition	stopsignal	0	0	0	0	0	0	609	1	stop.jpg	1	0	0	0	0	0	0
043021	15:42:47	1	1	5.0.14.0	2	8	stopSignalPosition	focus	0	0	4000	0	0	0	4000	1	background-full.jpg	1	1	9	1	0	0	0
043021	15:42:47	1	1	5.0.14.0	2	9	stopSignalPosition	stop	0	0	0	0	0	0	141	1	background-full.jpg	1	1	9	1	1	deer.jpg	1
043021	15:42:47	1	1	5.0.14.0	2	10	stopSignalPosition	stopsignal	0	0	0	0	0	0	609	1	stop.jpg	2	0	0	0	0	0	0
043021	15:42:47	1	1	5.0.14.0	2	11	stopSignalPosition	focus	0	0	4000	0	0	0	4000	1	background-full.jpg	1	1	10	1	0	0	0
043021	15:42:47	1	1	5.0.14.0	2	12	stopSignalPosition	stop	0	0	0	0	30	1	423	1	background-full.jpg	1	1	9	1	2	tank.jpg	1
043021	15:42:47	1	1	5.0.14.0	2	13	stopSignalPosition	focus	0	0	5000	0	0	0	5000	1	background-full.jpg	1	1	9	1	0	0	0
043021	15:42:47	1	1	5.0.14.0	2	14	stopSignalPosition	stim	0	0	0	0	30	1	453	1	background-full.jpg	1	1	10	1	2	tank.jpg	1
043021	15:42:47	1	1	5.0.14.0	2	15	stopSignalPosition	focus	0	0	5000	0	0	0	5000	1	background-full.jpg	1	1	10	1	0	0	0
043021	15:42:47	1	1	5.0.14.0	2	16	stopSignalPosition	stim	0	0	0	0	32	1	669	1	background-full.jpg	1	1	11	1	1	deer.jpg	1
043021	15:42:47	1	1	5.0.14.0	2	17	stopSignalPosition	focus	0	0	4500	0	0	0	4500	1	background-full.jpg	1	1	11	1	0	0	0
043021	15:42:47	1	1	5.0.14.0	2	18	stopSignalPosition	stim	0	0	0	0	32	1	694	1	background-full.jpg	1	1	12	1	1	deer.jpg	1
043021	15:42:47	1	1	5.0.14.0	2	19	stopSignalPosition	focus	0	0	5000	0	0	0	5000	1	background-full.jpg	1	1	12	1	0	0	0
043021	15:42:47	1	1	5.0.14.0	2	20	stopSignalPosition	stim	0	0	0	0	32	1	621	1	background-full.jpg	1	1	13	1	1	deer.jpg	1
043021	15:42:47	1	1	5.0.14.0	2	21	stopSignalPosition	focus	0	0	3500	0	0	0	3500	1	background-full.jpg	1	1	13	1	0	0	0
043021	15:42:47	1	1	5.0.14.0	2	22	stopSignalPosition	stim	0	0	0	0	32	1	496	1	background-full.jpg	1	1	14	1	1	deer.jpg	1
043021	15:42:47	1	1	5.0.14.0	2	23	stopSignalPosition	focus	0	0	4000	0	0	0	4000	1	background-full.jpg	1	1	14	1	0	0	0
043021	15:42:47	1	1	5.0.14.0	3	1	Duration	focus	0	0	3500	0	0	0	3500	1	background-full.jpg	1	1	14	1	0	0	0
043021	15:42:47	1	1	5.0.14.0	3	2	Duration	stim	0	0	0	0	32	1	612	1	background-full.jpg	2	1	15	2	1	deer.jpg	2
043021	15:42:47	1	1	5.0.14.0	3	3	Duration	focus	0	0	5000	0	0	0	5000	1	background-full.jpg	1	1	15	1	0	0	0
043021	15:42:47	1	1	5.0.14.0	3	4	Duration	stim	0	0	0	0	32	1	528	1	background-full.jpg	1	1	16	1	1	deer.jpg	1
043021	15:42:47	1	1	5.0.14.0	3	5	Duration	focus	0	0	3000	0	0	0	3000	1	background-full.jpg	1	1	16	1	0	0	0
043021	15:42:47	1	1	5.0.14.0	3	6	Duration	stop	0	0	0	0	0	0	247	1	background-full.jpg	1	1	16	1	2	tank.jpg	1
043021	15:42:47	1	1	5.0.14.0	3	7	Duration	stopsignal	0	0	0	0	0	0	403	1	stop.jpg	1	0	0	0	0	0	0
043021	15:42:47	1	1	5.0.14.0	3	8	Duration	focus	0	0	3500	0	0	0	3500	1	background-full.jpg	1	1	17	1	0	0	0
043021	15:42:47	1	1	5.0.14.0	3	9	Duration	stop	0	0	0	0	0	0	124	1	background-full.jpg	1	1	17	1	1	deer.jpg	1
043021	15:42:47	1	1	5.0.14.0	3	10	Duration	stopsignal	0	0	0	0	0	0	526	1	stop.jpg	1	0	0	0	0	0	0
043021	15:42:47	1	1	5.0.14.0	3	11	Duration	focus	0	0	3000	0	0	0	3000	1	background-full.jpg	1	1	18	1	0	0	0
043021	15:42:47	1	1	5.0.14.0	3	12	Duration	stop	0	0	0	0	0	0	124	1	background-full.jpg	2	1	18	2	1	deer.jpg	2
043021	15:42:47	1	1	5.0.14.0	3	13	Duration	stopsignal	0	0	0	0	0	0	526	1	stop.jpg	1	0	0	0	0	0	0
043021	15:42:47	1	1	5.0.14.0	3	14	Duration	focus	0	0	4500	0	0	0	4500	1	background-full.jpg	1	1	19	1	0	0	0
043021	15:42:47	1	1	5.0.14.0	3	15	Duration	stim	0	0	0	0	32	1	501	1	background-full.jpg	1	1	20	1	1	deer.jpg	1
043021	15:42:47	1	1	5.0.14.0	3	16	Duration	focus	0	0	3500	0	0	0	3500	1	background-full.jpg	1	1	20	1	0	0	0
043021	15:42:47	1	1	5.0.14.0	3	17	Duration	stim	0	0	0	0	30	1	455	1	background-full.jpg	1	1	21	1	2	tank.jpg	1
043021	15:42:47	1	1	5.0.14.0	3	18	Duration	focus	0	0	5000	0	0	0	5000	1	background-full.jpg	1	1	21	1	0	0	0
043021	15:42:47	1	1	5.0.14.0	3	19	Duration	stim	0	0	0	0	30	1	565	1	background-full.jpg	1	1	22	1	2	tank.jpg	1
043021	15:42:47	1	1	5.0.14.0	3	20	Duration	focus	0	0	3500	0	0	0	3500	1	background-full.jpg	1	1	22	1	0	0	0
043021	15:42:47	1	1	5.0.14.0	3	21	Duration	stim	0	0	0	0	0	0	650	1	background-full.jpg	1	1	21	1	1	deer.jpg	1
043021	15:42:47	1	1	5.0.14.0	3	22	Duration	focus	0	0	4500	0	0	0	4500	1	background-full.jpg	1	1	21	1	0	0	0
043021	15:42:47	1	1	5.0.14.0	3	23	Duration	stim	0	0	0	0	32	1	484	1	background-full.jpg	1	1	22	1	1	deer.jpg	1
043021	15:42:47	1	1	5.0.14.0	3	24	Duration	focus	0	0	5000	0	0	0	5000	1	background-full.jpg	1	1	22	1	0	0	0
043021	15:42:47	1	1	5.0.14.0	4	1	Duration	focus	0	0	3000	0	0	0	3000	1	background-full.jpg	1	1	22	1	0	0	0
043021	15:42:47	1	1	5.0.14.0	4	2	Duration	stim	0	0	0	0	30	1	545	1	background-full.jpg	2	1	23	2	2	tank.jpg	2
043021	15:42:47	1	1	5.0.14.0	4	3	Duration	focus	0	0	4000	0	0	0	4000	1	background-full.jpg	1	1	23	1	0	0	0
043021	15:42:47	1	1	5.0.14.0	4	4	Duration	stim	0	0	0	0	32	1	417	1	background-full.jpg	1	1	24	1	1	deer.jpg	1
043021	15:42:47	1	1	5.0.14.0	4	5	Duration	focus	0	0	3500	0	0	0	3500	1	background-full.jpg	1	1	24	1	0	0	0
043021	15:42:47	1	1	5.0.14.0	4	6	Duration	stim	0	0	0	0	32	1	456	1	background-full.jpg	1	1	25	1	1	deer.jpg	1
043021	15:42:47	1	1	5.0.14.0	4	7	Duration	focus	0	0	4000	0	0	0	4000	1	background-full.jpg	1	1	25	1	0	0	0
043021	15:42:47	1	1	5.0.14.0	4	8	Duration	stim	0	0	0	0	32	1	525	1	background-full.jpg	1	1	26	1	1	deer.jpg	1
043021	15:42:47	1	1	5.0.14.0	4	9	Duration	focus	0	0	4000	0	0	0	4000	1	background-full.jpg	1	1	26	1	0	0	0
043021	15:42:47	1	1	5.0.14.0	4	10	Duration	stim	0	0	0	0	0	0	550	1	background-full.jpg	1	1	25	1	1	deer.jpg	1
043021	15:42:47	1	1	5.0.14.0	4	11	Duration	focus	0	0	5000	0	0	0	5000	1	background-full.jpg	2	1	25	2	0	0	0
043021	15:42:47	1	1	5.0.14.0	4	12	Duration	stop	0	0	0	0	0	0	408	1	background-full.jpg	1	1	25	1	1	deer.jpg	1
043021	15:42:47	1	1	5.0.14.0	4	13	Duration	stopsignal	0	0	0	0	32	1	76	1	stop.jpg	1	0	0	0	0	0	0
043021	15:42:47	1	1	5.0.14.0	4	14	Duration	focus	0	0	4000	0	0	0	4000	1	background-full.jpg	1	1	24	1	0	0	0
043021	15:42:47	1	1	5.0.14.0	4	15	Duration	stim	0	0	0	0	0	0	550	1	background-full.jpg	1	1	23	1	1	deer.jpg	1
043021	15:42:47	1	1	5.0.14.0	4	16	Duration	focus	0	0	3000	0	0	0	3000	1	background-full.jpg	1	1	23	1	0	0	0
043021	15:42:47	1	1	5.0.14.0	4	17	Duration	stop	0	0	0	0	0	0	204	1	background-full.jpg	1	1	23	1	1	deer.jpg	1
043021	15:42:47	1	1	5.0.14.0	4	18	Duration	stopsignal	0	0	0	0	32	1	171	1	stop.jpg	2	0	0	0	0	0	0
043021	15:42:47	1	1	5.0.14.0	4	19	Duration	focus	0	0	3000	0	0	0	3000	1	background-full.jpg	1	1	22	1	0	0	0
043021	15:42:47	1	1	5.0.14.0	4	20	Duration	stim	0	0	0	0	0	0	550	1	background-full.jpg	1	1	21	1	2	tank.jpg	1
043021	15:42:47	1	1	5.0.14.0	4	21	Duration	focus	0	0	5000	0	0	0	5000	1	background-full.jpg	2	1	21	2	0	0	0
043021	15:42:47	1	1	5.0.14.0	4	22	Duration	stim	0	0	0	0	30	1	539	1	background-full.jpg	1	1	22	1	2	tank.jpg	1
043021	15:42:47	1	1	5.0.14.0	4	23	Duration	focus	0	0	3000	0	0	0	3000	1	background-full.jpg	1	1	22	1	0	0	0
043021	15:42:47	1	1	5.0.14.0	5	1	Duration	focus	0	0	3000	0	0	0	3000	1	background-full.jpg	1	1	22	1	0	0	0
043021	15:42:47	1	1	5.0.14.0	5	2	Duration	stop	0	0	0	0	0	0	163	1	background-full.jpg	1	1	22	1	2	tank.jpg	1
043021	15:42:47	1	1	5.0.14.0	5	3	Duration	stopsignal	0	0	0	0	0	0	287	1	stop.jpg	1	0	0	0	0	0	0
043021	15:42:47	1	1	5.0.14.0	5	4	Duration	focus	0	0	4000	0	0	0	4000	1	background-full.jpg	1	1	23	1	0	0	0
043021	15:42:47	1	1	5.0.14.0	5	5	Duration	stim	0	0	0	0	0	0	450	1	background-full.jpg	1	1	22	1	2	tank.jpg	1
043021	15:42:47	1	1	5.0.14.0	5	6	Duration	focus	0	0	4500	0	0	0	4500	1	background-full.jpg	1	1	22	1	0	0	0
043021	15:42:47	1	1	5.0.14.0	5	7	Duration	stim	0	0	0	0	0	0	450	1	background-full.jpg	1	1	21	1	1	deer.jpg	1
043021	15:42:47	1	1	5.0.14.0	5	8	Duration	focus	0	0	5000	0	Ctrl+'Q'	1	4186	1	background-full.jpg	1	1	21	1	0	0	0
043021	15:51:49	1	1	5.0.14.0	1	2	Practice	stim	0	0	0	0	32	1	500	1	background-full.jpg	1	1	1	1	1	deer.jpg	1
043021	15:51:49	1	1	5.0.14.0	1	4	Practice	stim	0	0	0	0	32	1	588	1	background-full.jpg	1	1	2	1	1	deer.jpg	1
043021	15:51:49	1	1	5.0.14.0	1	6	Practice	stim	0	0	0	0	30	1	660	1	background-full.jpg	1	1	3	1	2	tank.jpg	1
043021	15:51:49	1	1	5.0.14.0	1	8	Practice	stim	0	0	0	0	32	1	675	1	background-full.jpg	1	1	4	1	1	deer.jpg	1
043021	15:51:49	1	1	5.0.14.0	1	10	Practice	stop	0	0	0	0	0	0	146	1	background-full.jpg	1	1	4	1	2	tank.jpg	1
043021	15:51:49	1	1	5.0.14.0	1	11	Practice	stopsignal	0	0	0	0	0	0	604	1	stop.jpg	1	0	0	0	0	0	0
043021	15:51:49	1	1	5.0.14.0	1	13	Practice	stop	0	0	0	0	0	0	291	1	background-full.jpg	1	1	5	1	1	deer.jpg	1
043021	15:51:49	1	1	5.0.14.0	1	14	Practice	stopsignal	0	0	0	0	0	0	459	1	stop.jpg	1	0	0	0	0	0	0
043021	15:51:49	1	1	5.0.14.0	1	16	Practice	stim	0	0	0	0	30	1	568	1	background-full.jpg	1	1	7	1	2	tank.jpg	1
043021	15:51:49	1	1	5.0.14.0	1	18	Practice	stop	0	0	0	0	0	0	291	1	background-full.jpg	1	1	7	1	2	tank.jpg	1
043021	15:51:49	1	1	5.0.14.0	1	19	Practice	stopsignal	0	0	0	0	0	0	459	1	stop.jpg	1	0	0	0	0	0	0
043021	15:51:49	1	1	5.0.14.0	1	21	Practice	stim	0	0	0	0	32	1	430	1	background-full.jpg	1	1	9	1	1	deer.jpg	1
043021	15:51:49	1	1	5.0.14.0	1	23	Practice	stim	0	0	0	0	32	1	550	1	background-full.jpg	1	1	10	1	1	deer.jpg	1
043021	15:51:49	1	1	5.0.14.0	2	1	stopSignalPosition	focus	0	0	3500	0	0	0	3500	1	background-full.jpg	1	1	10	1	0	0	0
043021	15:51:49	1	1	5.0.14.0	2	2	stopSignalPosition	stim	0	0	0	0	30	1	509	1	background-full.jpg	1	1	11	1	2	tank.jpg	1
043021	15:51:49	1	1	5.0.14.0	2	3	stopSignalPosition	focus	0	0	5000	0	0	0	5000	1	background-full.jpg	1	1	11	1	0	0	0
043021	15:51:49	1	1	5.0.14.0	2	4	stopSignalPosition	stop	0	0	0	0	0	0	284	1	background-full.jpg	1	1	11	1	2	tank.jpg	1
043021	15:51:49	1	1	5.0.14.0	2	5	stopSignalPosition	stopsignal	0	0	0	0	0	0	467	1	stop.jpg	2	0	0	0	0	0	0
043021	15:51:49	1	1	5.0.14.0	2	6	stopSignalPosition	focus	0	0	4000	0	0	0	4000	1	background-full.jpg	1	1	12	1	0	0	0
043021	15:51:49	1	1	5.0.14.0	2	7	stopSignalPosition	stim	0	0	0	0	30	1	626	1	background-full.jpg	2	1	13	2	2	tank.jpg	2
043021	15:51:49	1	1	5.0.14.0	2	8	stopSignalPosition	focus	0	0	4500	0	0	0	4500	1	background-full.jpg	1	1	13	1	0	0	0
043021	15:51:49	1	1	5.0.14.0	2	9	stopSignalPosition	stop	0	0	0	0	0	0	284	1	background-full.jpg	1	1	13	1	1	deer.jpg	1
043021	15:51:49	1	1	5.0.14.0	2	10	stopSignalPosition	stopsignal	0	0	0	0	0	0	467	1	stop.jpg	1	0	0	0	0	0	0
043021	15:51:49	1	1	5.0.14.0	2	11	stopSignalPosition	focus	0	0	5000	0	0	0	5000	1	background-full.jpg	1	1	14	1	0	0	0
043021	15:51:49	1	1	5.0.14.0	2	12	stopSignalPosition	stop	0	0	0	0	32	1	491	1	background-full.jpg	1	1	13	1	1	deer.jpg	1
043021	15:51:49	1	1	5.0.14.0	2	13	stopSignalPosition	focus	0	0	5000	0	0	0	5000	1	background-full.jpg	1	1	13	1	0	0	0
043021	15:51:49	1	1	5.0.14.0	2	14	stopSignalPosition	stim	0	0	0	0	30	1	627	1	background-full.jpg	1	1	14	1	2	tank.jpg	1
043021	15:51:49	1	1	5.0.14.0	2	15	stopSignalPosition	focus	0	0	4000	0	0	0	4000	1	background-full.jpg	2	1	14	2	0	0	0
043021	15:51:49	1	1	5.0.14.0	2	16	stopSignalPosition	stim	0	0	0	0	30	1	656	1	background-full.jpg	1	1	15	1	2	tank.jpg	1
043021	15:51:49	1	1	5.0.14.0	2	17	stopSignalPosition	focus	0	0	3500	0	0	0	3500	1	background-full.jpg	1	1	15	1	0	0	0
043021	15:51:49	1	1	5.0.14.0	2	18	stopSignalPosition	stim	0	0	0	0	30	1	654	1	background-full.jpg	1	1	16	1	2	tank.jpg	1
043021	15:51:49	1	1	5.0.14.0	2	19	stopSignalPosition	focus	0	0	4500	0	0	0	4500	1	background-full.jpg	1	1	16	1	0	0	0
043021	15:51:49	1	1	5.0.14.0	2	20	stopSignalPosition	stim	0	0	0	0	30	1	633	1	background-full.jpg	1	1	17	1	2	tank.jpg	1
043021	15:51:49	1	1	5.0.14.0	2	21	stopSignalPosition	focus	0	0	3500	0	0	0	3500	1	background-full.jpg	1	1	17	1	0	0	0
043021	15:51:49	1	1	5.0.14.0	2	22	stopSignalPosition	stim	0	0	0	0	0	0	750	1	background-full.jpg	1	1	16	1	1	deer.jpg	1
043021	15:51:49	1	1	5.0.14.0	2	23	stopSignalPosition	focus	0	0	5000	0	0	0	5000	1	background-full.jpg	1	1	16	1	0	0	0
043021	15:51:49	1	1	5.0.14.0	3	1	Duration	focus	0	0	4500	0	0	0	4500	1	background-full.jpg	1	1	16	1	0	0	0
043021	15:51:49	1	1	5.0.14.0	3	2	Duration	stim	0	0	0	0	30	1	567	1	background-full.jpg	1	1	17	1	2	tank.jpg	1
043021	15:51:49	1	1	5.0.14.0	3	3	Duration	focus	0	0	4000	0	0	0	4000	1	background-full.jpg	1	1	17	1	0	0	0
043021	15:51:49	1	1	5.0.14.0	3	4	Duration	stim	0	0	0	0	0	0	650	1	background-full.jpg	1	1	16	1	2	tank.jpg	1
043021	15:51:49	1	1	5.0.14.0	3	5	Duration	focus	0	0	4000	0	0	0	4000	1	background-full.jpg	1	1	16	1	0	0	0
043021	15:51:49	1	1	5.0.14.0	3	6	Duration	stim	0	0	0	0	30	1	349	1	background-full.jpg	1	1	17	1	2	tank.jpg	1
043021	15:51:49	1	1	5.0.14.0	3	7	Duration	focus	0	0	3000	0	0	0	3000	1	background-full.jpg	2	1	17	2	0	0	0
043021	15:51:49	1	1	5.0.14.0	3	8	Duration	stim	0	0	0	0	30	1	487	1	background-full.jpg	1	1	18	1	2	tank.jpg	1
043021	15:51:49	1	1	5.0.14.0	3	9	Duration	focus	0	0	3000	0	0	0	3000	1	background-full.jpg	1	1	18	1	0	0	0
043021	15:51:49	1	1	5.0.14.0	3	10	Duration	stop	0	0	0	0	0	0	128	1	background-full.jpg	1	1	18	1	1	deer.jpg	1
043021	15:51:49	1	1	5.0.14.0	3	11	Duration	stopsignal	0	0	0	0	32	1	370	1	stop.jpg	1	0	0	0	0	0	0
043021	15:51:49	1	1	5.0.14.0	3	12	Duration	focus	0	0	4000	0	0	0	4000	1	background-full.jpg	1	1	17	1	0	0	0
043021	15:51:49	1	1	5.0.14.0	3	13	Duration	stim	0	0	0	0	30	1	498	1	background-full.jpg	1	1	18	1	2	tank.jpg	1
043021	15:51:49	1	1	5.0.14.0	3	14	Duration	focus	0	0	3000	0	0	0	3000	1	background-full.jpg	1	1	18	1	0	0	0
043021	15:51:49	1	1	5.0.14.0	3	15	Duration	stim	0	0	0	0	32	1	567	1	background-full.jpg	1	1	19	1	1	deer.jpg	1
043021	15:51:49	1	1	5.0.14.0	3	16	Duration	focus	0	0	3500	0	0	0	3500	1	background-full.jpg	1	1	19	1	0	0	0
043021	15:51:49	1	1	5.0.14.0	3	17	Duration	stop	0	0	0	0	0	0	256	1	background-full.jpg	1	1	19	1	2	tank.jpg	1
043021	15:51:49	1	1	5.0.14.0	3	18	Duration	stopsignal	0	0	0	0	0	0	394	1	stop.jpg	1	0	0	0	0	0	0
043021	15:51:49	1	1	5.0.14.0	3	19	Duration	focus	0	0	3500	0	0	0	3500	1	background-full.jpg	1	1	20	1	0	0	0
043021	15:51:49	1	1	5.0.14.0	3	20	Duration	stim	0	0	0	0	30	1	365	1	background-full.jpg	1	1	21	1	2	tank.jpg	1
043021	15:51:49	1	1	5.0.14.0	3	21	Duration	focus	0	0	4000	0	0	0	4000	1	background-full.jpg	1	1	21	1	0	0	0
043021	15:51:49	1	1	5.0.14.0	3	22	Duration	stop	0	0	0	0	0	0	511	1	background-full.jpg	1	1	21	1	2	tank.jpg	1
043021	15:51:49	1	1	5.0.14.0	3	23	Duration	stopsignal	0	0	0	0	30	1	100	1	stop.jpg	1	0	0	0	0	0	0
043021	15:51:49	1	1	5.0.14.0	3	24	Duration	focus	0	0	4000	0	0	0	4000	1	background-full.jpg	1	1	20	1	0	0	0
043021	15:57:34	1	1	5.0.14.0	1	2	Practice	stim	0	0	0	0	30	1	538	1	background-full.jpg	2	1	1	2	2	tank.jpg	2
043021	15:57:34	1	1	5.0.14.0	1	4	Practice	stim	0	0	0	0	30	1	477	1	background-full.jpg	1	1	2	1	2	tank.jpg	1
043021	15:57:34	1	1	5.0.14.0	1	6	Practice	stim	0	0	0	0	30	1	561	1	background-full.jpg	1	1	3	1	2	tank.jpg	1
043021	15:57:34	1	1	5.0.14.0	1	8	Practice	stim	0	0	0	0	32	1	473	1	background-full.jpg	1	1	4	1	1	deer.jpg	1
043021	15:57:34	1	1	5.0.14.0	1	10	Practice	stim	0	0	0	0	30	1	417	1	background-full.jpg	1	1	5	1	2	tank.jpg	1
043021	15:57:34	1	1	5.0.14.0	1	12	Practice	stim	0	0	0	0	0	0	750	1	background-full.jpg	1	1	4	1	1	deer.jpg	1
043021	15:57:34	1	1	5.0.14.0	1	14	Practice	stim	0	0	0	0	30	1	455	1	background-full.jpg	1	1	5	1	2	tank.jpg	1
043021	15:57:34	1	1	5.0.14.0	1	16	Practice	stop	0	0	0	0	0	0	263	1	background-full.jpg	1	1	5	1	2	tank.jpg	1
043021	15:57:34	1	1	5.0.14.0	1	17	Practice	stopsignal	0	0	0	0	30	1	312	1	stop.jpg	2	0	0	0	0	0	0
043021	15:57:34	1	1	5.0.14.0	1	19	Practice	stop	0	0	0	0	0	0	263	1	background-full.jpg	1	1	4	1	2	tank.jpg	1
043021	15:57:34	1	1	5.0.14.0	1	20	Practice	stopsignal	0	0	0	0	0	0	487	1	stop.jpg	1	0	0	0	0	0	0
043021	15:57:34	1	1	5.0.14.0	1	22	Practice	stop	0	0	0	0	0	0	525	1	background-full.jpg	1	1	5	1	2	tank.jpg	1
043021	15:57:34	1	1	5.0.14.0	1	23	Practice	stopsignal	0	0	0	0	30	1	16	1	stop.jpg	1	0	0	0	0	0	0
043021	15:57:34	1	1	5.0.14.0	2	1	stopSignalPosition	focus	0	0	3000	0	0	0	3000	1	background-full.jpg	2	1	4	2	0	0	0
043021	15:57:34	1	1	5.0.14.0	2	2	stopSignalPosition	stim	0	0	0	0	32	1	690	1	background-full.jpg	1	1	5	1	1	deer.jpg	1
043021	15:57:34	1	1	5.0.14.0	2	3	stopSignalPosition	focus	0	0	3500	0	0	0	3500	1	background-full.jpg	1	1	5	1	0	0	0
043021	15:57:34	1	1	5.0.14.0	2	4	stopSignalPosition	stim	0	0	0	0	32	1	618	1	background-full.jpg	1	1	6	1	1	deer.jpg	1
043021	15:57:34	1	1	5.0.14.0	2	5	stopSignalPosition	focus	0	0	4000	0	0	0	4000	1	background-full.jpg	1	1	6	1	0	0	0
043021	15:57:34	1	1	5.0.14.0	2	6	stopSignalPosition	stim	0	0	0	0	32	1	428	1	background-full.jpg	1	1	7	1	1	deer.jpg	1
043021	15:57:34	1	1	5.0.14.0	2	7	stopSignalPosition	focus	0	0	3500	0	0	0	3500	1	background-full.jpg	1	1	7	1	0	0	0
043021	15:57:34	1	1	5.0.14.0	2	8	stopSignalPosition	stop	0	0	0	0	0	0	487	1	background-full.jpg	1	1	7	1	2	tank.jpg	1
043021	15:57:34	1	1	5.0.14.0	2	9	stopSignalPosition	stopsignal	0	0	0	0	30	1	127	1	stop.jpg	1	0	0	0	0	0	0
043021	15:57:34	1	1	5.0.14.0	2	10	stopSignalPosition	focus	0	0	3000	0	0	0	3000	1	background-full.jpg	1	1	6	1	0	0	0
043021	15:57:34	1	1	5.0.14.0	2	11	stopSignalPosition	stim	0	0	0	0	0	0	750	1	background-full.jpg	1	1	5	1	2	tank.jpg	1
043021	15:57:34	1	1	5.0.14.0	2	12	stopSignalPosition	focus	0	0	3000	0	0	0	3000	1	background-full.jpg	1	1	5	1	0	0	0
043021	15:57:34	1	1	5.0.14.0	2	13	stopSignalPosition	stim	0	0	0	0	0	0	750	1	background-full.jpg	1	1	4	1	2	tank.jpg	1
043021	15:57:34	1	1	5.0.14.0	2	14	stopSignalPosition	focus	0	0	4000	0	0	0	4000	1	background-full.jpg	1	1	4	1	0	0	0
043021	15:57:34	1	1	5.0.14.0	2	15	stopSignalPosition	stim	0	0	0	0	32	0	567	1	background-full.jpg	1	1	3	1	2	tank.jpg	1
043021	15:57:34	1	1	5.0.14.0	2	16	stopSignalPosition	focus	0	0	3000	0	0	0	3000	1	background-full.jpg	1	1	3	1	0	0	0
043021	15:57:34	1	1	5.0.14.0	2	17	stopSignalPosition	stop	0	0	0	0	0	0	122	1	background-full.jpg	1	1	3	1	1	deer.jpg	1
043021	15:57:34	1	1	5.0.14.0	2	18	stopSignalPosition	stopsignal	0	0	0	0	0	0	628	1	stop.jpg	2	0	0	0	0	0	0
043021	15:57:34	1	1	5.0.14.0	2	19	stopSignalPosition	focus	0	0	3000	0	0	0	3000	1	background-full.jpg	2	1	4	2	0	0	0
043021	15:57:34	1	1	5.0.14.0	2	20	stopSignalPosition	stim	0	0	0	0	30	1	704	1	background-full.jpg	1	1	5	1	2	tank.jpg	1
043021	15:57:34	1	1	5.0.14.0	2	21	stopSignalPosition	focus	0	0	3500	0	0	0	3500	1	background-full.jpg	1	1	5	1	0	0	0
043021	15:57:34	1	1	5.0.14.0	2	22	stopSignalPosition	stim	0	0	0	0	30	0	560	1	background-full.jpg	1	1	4	1	1	deer.jpg	1
043021	15:57:34	1	1	5.0.14.0	2	23	stopSignalPosition	focus	0	0	4000	0	0	0	4000	1	background-full.jpg	1	1	4	1	0	0	0
043021	15:57:34	1	1	5.0.14.0	3	1	Duration	focus	0	0	5000	0	0	0	5000	1	background-full.jpg	1	1	4	1	0	0	0
043021	15:57:34	1	1	5.0.14.0	3	2	Duration	stim	0	0	0	0	30	1	483	1	background-full.jpg	1	1	5	1	2	tank.jpg	1
043021	15:57:34	1	1	5.0.14.0	3	3	Duration	focus	0	0	4500	0	0	0	4500	1	background-full.jpg	1	1	5	1	0	0	0
043021	15:57:34	1	1	5.0.14.0	3	4	Duration	stim	0	0	0	0	32	1	583	1	background-full.jpg	1	1	6	1	1	deer.jpg	1
043021	15:57:34	1	1	5.0.14.0	3	5	Duration	focus	0	0	4000	0	0	0	4000	1	background-full.jpg	1	1	6	1	0	0	0
043021	15:57:34	1	1	5.0.14.0	3	6	Duration	stop	0	0	0	0	0	0	465	1	background-full.jpg	1	1	6	1	1	deer.jpg	1
043021	15:57:34	1	1	5.0.14.0	3	7	Duration	stopsignal	0	0	0	0	32	1	64	1	stop.jpg	1	0	0	0	0	0	0
043021	15:57:34	1	1	5.0.14.0	3	8	Duration	focus	0	0	4000	0	0	0	4000	1	background-full.jpg	1	1	5	1	0	0	0
043021	15:57:34	1	1	5.0.14.0	3	9	Duration	stim	0	0	0	0	32	1	562	1	background-full.jpg	1	1	6	1	1	deer.jpg	1
043021	15:57:34	1	1	5.0.14.0	3	10	Duration	focus	0	0	4000	0	0	0	4000	1	background-full.jpg	1	1	6	1	0	0	0
043021	15:57:34	1	1	5.0.14.0	3	11	Duration	stop	0	0	0	0	0	0	116	1	background-full.jpg	1	1	6	1	1	deer.jpg	1
043021	15:57:34	1	1	5.0.14.0	3	12	Duration	stopsignal	0	0	0	0	0	0	534	1	stop.jpg	1	0	0	0	0	0	0
043021	15:57:34	1	1	5.0.14.0	3	13	Duration	focus	0	0	5000	0	0	0	5000	1	background-full.jpg	1	1	7	1	0	0	0
043021	15:57:34	1	1	5.0.14.0	3	14	Duration	stim	0	0	0	0	30	1	605	1	background-full.jpg	1	1	8	1	2	tank.jpg	1
043021	15:57:34	1	1	5.0.14.0	3	15	Duration	focus	0	0	3500	0	0	0	3500	1	background-full.jpg	1	1	8	1	0	0	0
043021	15:57:34	1	1	5.0.14.0	3	16	Duration	stim	0	0	0	0	32	1	533	1	background-full.jpg	1	1	9	1	1	deer.jpg	1
043021	15:57:34	1	1	5.0.14.0	3	17	Duration	focus	0	0	3500	0	0	0	3500	1	background-full.jpg	1	1	9	1	0	0	0
043021	15:57:34	1	1	5.0.14.0	3	18	Duration	stim	0	0	0	0	32	1	623	1	background-full.jpg	1	1	10	1	1	deer.jpg	1
043021	15:57:34	1	1	5.0.14.0	3	19	Duration	focus	0	0	3000	0	0	0	3000	1	background-full.jpg	1	1	10	1	0	0	0
043021	15:57:34	1	1	5.0.14.0	3	20	Duration	stim	0	0	0	0	0	0	650	1	background-full.jpg	1	1	9	1	2	tank.jpg	1
043021	15:57:34	1	1	5.0.14.0	3	21	Duration	focus	0	0	3500	0	0	0	3500	1	background-full.jpg	1	1	9	1	0	0	0
043021	15:57:34	1	1	5.0.14.0	3	22	Duration	stop	0	0	0	0	0	0	116	1	background-full.jpg	1	1	9	1	1	deer.jpg	1
043021	15:57:34	1	1	5.0.14.0	3	23	Duration	stopsignal	0	0	0	0	0	0	534	1	stop.jpg	1	0	0	0	0	0	0
043021	15:57:34	1	1	5.0.14.0	3	24	Duration	focus	0	0	4500	0	0	0	4500	1	background-full.jpg	1	1	10	1	0	0	0
043021	15:57:34	1	1	5.0.14.0	4	1	Duration	focus	0	0	3500	0	0	0	3500	1	background-full.jpg	1	1	10	1	0	0	0
043021	15:57:34	1	1	5.0.14.0	4	2	Duration	stim	0	0	0	0	0	0	550	1	background-full.jpg	1	1	9	1	2	tank.jpg	1
043021	15:57:34	1	1	5.0.14.0	4	3	Duration	focus	0	0	3000	0	0	0	3000	1	background-full.jpg	1	1	9	1	0	0	0
043021	15:57:34	1	1	5.0.14.0	4	4	Duration	stop	0	0	0	0	0	0	401	1	background-full.jpg	1	1	9	1	1	deer.jpg	1
043021	15:57:34	1	1	5.0.14.0	4	5	Duration	stopsignal	0	0	0	0	0	0	149	1	stop.jpg	2	0	0	0	0	0	0
043021	15:57:34	1	1	5.0.14.0	4	6	Duration	focus	0	0	4500	0	0	0	4500	1	background-full.jpg	1	1	10	1	0	0	0
043021	15:57:34	1	1	5.0.14.0	4	7	Duration	stim	0	0	0	0	0	0	550	1	background-full.jpg	1	1	9	1	2	tank.jpg	1
043021	15:57:34	1	1	5.0.14.0	4	8	Duration	focus	0	0	4500	0	0	0	4500	1	background-full.jpg	1	1	9	1	0	0	0
043021	15:57:34	1	1	5.0.14.0	4	9	Duration	stim	0	0	0	0	0	0	550	1	background-full.jpg	1	1	8	1	2	tank.jpg	1
043021	15:57:34	1	1	5.0.14.0	4	10	Duration	focus	0	0	3000	0	0	0	3000	1	background-full.jpg	1	1	8	1	0	0	0
043021	15:57:34	1	1	5.0.14.0	4	11	Duration	stop	0	0	0	0	0	0	201	1	background-full.jpg	1	1	8	1	1	deer.jpg	1
043021	15:57:34	1	1	5.0.14.0	4	12	Duration	stopsignal	0	0	0	0	0	0	349	1	stop.jpg	1	0	0	0	0	0	0
043021	15:57:34	1	1	5.0.14.0	4	13	Duration	focus	0	0	3000	0	0	0	3000	1	background-full.jpg	1	1	9	1	0	0	0
043021	15:57:34	1	1	5.0.14.0	4	14	Duration	stim	0	0	0	0	0	0	550	1	background-full.jpg	1	1	8	1	2	tank.jpg	1
043021	15:57:34	1	1	5.0.14.0	4	15	Duration	focus	0	0	3000	0	0	0	3000	1	background-full.jpg	1	1	8	1	0	0	0
043021	15:57:34	1	1	5.0.14.0	4	16	Duration	stop	0	0	0	0	0	0	201	1	background-full.jpg	1	1	8	1	1	deer.jpg	1
043021	15:57:34	1	1	5.0.14.0	4	17	Duration	stopsignal	0	0	0	0	0	0	349	1	stop.jpg	2	0	0	0	0	0	0
043021	15:57:34	1	1	5.0.14.0	4	18	Duration	focus	0	0	5000	0	0	0	5000	1	background-full.jpg	1	1	9	1	0	0	0
043021	15:57:34	1	1	5.0.14.0	4	19	Duration	stim	0	0	0	0	0	0	550	1	background-full.jpg	1	1	8	1	1	deer.jpg	1
043021	15:57:34	1	1	5.0.14.0	4	20	Duration	focus	0	0	4500	0	0	0	4500	1	background-full.jpg	1	1	8	1	0	0	0
043021	15:57:34	1	1	5.0.14.0	4	21	Duration	stim	0	0	0	0	0	0	550	1	background-full.jpg	1	1	7	1	2	tank.jpg	1
043021	15:57:34	1	1	5.0.14.0	4	22	Duration	focus	0	0	3000	0	0	0	3000	1	background-full.jpg	1	1	7	1	0	0	0
043021	15:57:34	1	1	5.0.14.0	4	23	Duration	stim	0	0	0	0	0	0	550	1	background-full.jpg	1	1	6	1	2	tank.jpg	1
043021	15:57:34	1	1	5.0.14.0	4	24	Duration	focus	0	0	3500	0	0	0	3500	1	background-full.jpg	2	1	6	2	0	0	0
050321	13:43:34	1	1	5.0.14.0	1	2	Practice	stim	0	0	0	0	30	1	459	1	background-full.jpg	1	1	1	1	2	tank.jpg	1
050321	13:43:34	1	1	5.0.14.0	1	4	Practice	stim	0	0	0	0	30	1	565	1	background-full.jpg	1	1	2	1	2	tank.jpg	1
050321	13:43:34	1	1	5.0.14.0	1	6	Practice	stim	0	0	0	0	32	1	444	1	background-full.jpg	1	1	3	1	1	deer.jpg	1
050321	13:43:34	1	1	5.0.14.0	1	8	Practice	stop	0	0	0	0	0	0	245	1	background-full.jpg	1	1	3	1	2	tank.jpg	1
050321	13:43:34	1	1	5.0.14.0	1	9	Practice	stopsignal	0	0	0	0	0	0	505	1	stop.jpg	1	0	0	0	0	0	0
050321	13:43:34	1	1	5.0.14.0	1	11	Practice	stop	0	0	0	0	0	0	489	1	background-full.jpg	2	1	4	2	1	deer.jpg	2
050321	13:43:34	1	1	5.0.14.0	1	12	Practice	stopsignal	0	0	0	0	0	0	261	1	stop.jpg	1	0	0	0	0	0	0
050321	13:43:34	1	1	5.0.14.0	1	14	Practice	stim	0	0	0	0	32	1	630	1	background-full.jpg	1	1	6	1	1	deer.jpg	1
050321	13:43:34	1	1	5.0.14.0	1	16	Practice	stim	0	0	0	0	32	1	550	1	background-full.jpg	1	1	7	1	1	deer.jpg	1
050321	13:43:34	1	1	5.0.14.0	1	18	Practice	stim	0	0	0	0	30	1	429	1	background-full.jpg	1	1	8	1	2	tank.jpg	1
050321	13:43:34	1	1	5.0.14.0	1	20	Practice	stop	0	0	0	0	0	0	122	1	background-full.jpg	1	1	8	1	2	tank.jpg	1
050321	13:43:34	1	1	5.0.14.0	1	21	Practice	stopsignal	0	0	0	0	0	0	628	1	stop.jpg	1	0	0	0	0	0	0
050321	13:43:34	1	1	5.0.14.0	1	23	Practice	stop	0	0	0	0	32	1	375	1	background-full.jpg	1	1	8	1	1	deer.jpg	1
050321	13:43:34	1	1	5.0.14.0	2	1	stopSignalPosition	focus	0	0	4500	0	0	0	4500	1	background-full.jpg	1	1	8	1	0	0	0
050321	13:43:34	1	1	5.0.14.0	2	2	stopSignalPosition	stop	0	0	0	0	0	0	128	1	background-full.jpg	1	1	8	1	1	deer.jpg	1
050321	13:43:34	1	1	5.0.14.0	2	3	stopSignalPosition	stopsignal	0	0	0	0	0	0	622	1	stop.jpg	1	0	0	0	0	0	0
050321	13:43:34	1	1	5.0.14.0	2	4	stopSignalPosition	focus	0	0	5000	0	0	0	5000	1	background-full.jpg	1	1	9	1	0	0	0
050321	13:43:34	1	1	5.0.14.0	2	5	stopSignalPosition	stim	0	0	0	0	30	1	496	1	background-full.jpg	1	1	10	1	2	tank.jpg	1
050321	13:43:34	1	1	5.0.14.0	2	6	stopSignalPosition	focus	0	0	3000	0	0	0	3000	1	background-full.jpg	1	1	10	1	0	0	0
050321	13:43:34	1	1	5.0.14.0	2	7	stopSignalPosition	stim	0	0	0	0	32	1	653	1	background-full.jpg	1	1	11	1	1	deer.jpg	1
050321	13:43:34	1	1	5.0.14.0	2	8	stopSignalPosition	focus	0	0	3000	0	0	0	3000	1	background-full.jpg	1	1	11	1	0	0	0
050321	13:43:34	1	1	5.0.14.0	2	9	stopSignalPosition	stop	0	0	0	0	0	0	128	1	background-full.jpg	1	1	11	1	2	tank.jpg	1
050321	13:43:34	1	1	5.0.14.0	2	10	stopSignalPosition	stopsignal	0	0	0	0	0	0	622	1	stop.jpg	1	0	0	0	0	0	0
050321	13:43:34	1	1	5.0.14.0	2	11	stopSignalPosition	focus	0	0	3500	0	0	0	3500	1	background-full.jpg	1	1	12	1	0	0	0
050321	13:43:34	1	1	5.0.14.0	2	12	stopSignalPosition	stim	0	0	0	0	0	0	750	1	background-full.jpg	2	1	11	2	2	tank.jpg	2
050321	13:43:34	1	1	5.0.14.0	2	13	stopSignalPosition	focus	0	0	3500	0	0	0	3500	1	background-full.jpg	1	1	11	1	0	0	0
050321	13:43:34	1	1	5.0.14.0	2	14	stopSignalPosition	stim	0	0	0	0	32	1	610	1	background-full.jpg	1	1	12	1	1	deer.jpg	1
050321	13:43:34	1	1	5.0.14.0	2	15	stopSignalPosition	focus	0	0	4000	0	0	0	4000	1	background-full.jpg	2	1	12	2	0	0	0
050321	13:43:34	1	1	5.0.14.0	2	16	stopSignalPosition	stim	0	0	0	0	30	1	529	1	background-full.jpg	1	1	13	1	2	tank.jpg	1
050321	13:43:34	1	1	5.0.14.0	2	17	stopSignalPosition	focus	0	0	5000	0	0	0	5000	1	background-full.jpg	1	1	13	1	0	0	0
050321	13:43:34	1	1	5.0.14.0	2	18	stopSignalPosition	stim	0	0	0	0	32	1	628	1	background-full.jpg	1	1	14	1	1	deer.jpg	1
050321	13:43:34	1	1	5.0.14.0	2	19	stopSignalPosition	focus	0	0	3500	0	0	0	3500	1	background-full.jpg	1	1	14	1	0	0	0
050321	13:43:34	1	1	5.0.14.0	2	20	stopSignalPosition	stop	0	0	0	0	0	0	257	1	background-full.jpg	1	1	14	1	1	deer.jpg	1
050321	13:43:34	1	1	5.0.14.0	2	21	stopSignalPosition	stopsignal	0	0	0	0	0	0	494	1	stop.jpg	1	0	0	0	0	0	0
050321	13:43:34	1	1	5.0.14.0	2	22	stopSignalPosition	focus	0	0	4000	0	0	0	4000	1	background-full.jpg	1	1	15	1	0	0	0
050321	13:43:34	1	1	5.0.14.0	2	23	stopSignalPosition	stim	0	0	0	0	32	1	577	1	background-full.jpg	1	1	16	1	1	deer.jpg	1
050321	13:43:34	1	1	5.0.14.0	2	24	stopSignalPosition	focus	0	0	3000	0	0	0	3000	1	background-full.jpg	1	1	16	1	0	0	0
050321	13:43:34	1	1	5.0.14.0	3	1	Duration	focus	0	0	3500	0	0	0	3500	1	background-full.jpg	1	1	16	1	0	0	0
050321	13:43:34	1	1	5.0.14.0	3	2	Duration	stim	0	0	0	0	30	1	555	1	background-full.jpg	1	1	17	1	2	tank.jpg	1
050321	13:43:34	1	1	5.0.14.0	3	3	Duration	focus	0	0	3500	0	0	0	3500	1	background-full.jpg	1	1	17	1	0	0	0
050321	13:43:34	1	1	5.0.14.0	3	4	Duration	stop	0	0	0	0	0	0	119	1	background-full.jpg	2	1	17	2	1	deer.jpg	2
050321	13:43:34	1	1	5.0.14.0	3	5	Duration	stopsignal	0	0	0	0	0	0	531	1	stop.jpg	1	0	0	0	0	0	0
050321	13:43:34	1	1	5.0.14.0	3	6	Duration	focus	0	0	3000	0	0	0	3000	1	background-full.jpg	1	1	18	1	0	0	0
050321	13:43:34	1	1	5.0.14.0	3	7	Duration	stim	0	0	0	0	30	1	489	1	background-full.jpg	1	1	19	1	2	tank.jpg	1
050321	13:43:34	1	1	5.0.14.0	3	8	Duration	focus	0	0	4000	0	0	0	4000	1	background-full.jpg	1	1	19	1	0	0	0
050321	13:43:34	1	1	5.0.14.0	3	9	Duration	stop	0	0	0	0	0	0	475	1	background-full.jpg	1	1	19	1	2	tank.jpg	1
050321	13:43:34	1	1	5.0.14.0	3	10	Duration	stopsignal	0	0	0	0	30	1	67	1	stop.jpg	1	0	0	0	0	0	0
050321	13:43:34	1	1	5.0.14.0	3	11	Duration	focus	0	0	4500	0	0	0	4500	1	background-full.jpg	1	1	18	1	0	0	0
050321	13:43:34	1	1	5.0.14.0	3	12	Duration	stim	0	0	0	0	30	1	532	1	background-full.jpg	1	1	19	1	2	tank.jpg	1
050321	13:43:34	1	1	5.0.14.0	3	13	Duration	focus	0	0	4000	0	0	0	4000	1	background-full.jpg	2	1	19	2	0	0	0
050321	13:43:34	1	1	5.0.14.0	3	14	Duration	stim	0	0	0	0	30	1	498	1	background-full.jpg	1	1	20	1	2	tank.jpg	1
050321	13:43:34	1	1	5.0.14.0	3	15	Duration	focus	0	0	3500	0	0	0	3500	1	background-full.jpg	1	1	20	1	0	0	0
050321	13:43:34	1	1	5.0.14.0	3	16	Duration	stop	0	0	0	0	0	0	237	1	background-full.jpg	1	1	20	1	1	deer.jpg	1
050321	13:43:34	1	1	5.0.14.0	3	17	Duration	stopsignal	0	0	0	0	0	0	413	1	stop.jpg	1	0	0	0	0	0	0
050321	13:43:34	1	1	5.0.14.0	3	18	Duration	focus	0	0	4000	0	0	0	4000	1	background-full.jpg	1	1	21	1	0	0	0
050321	13:43:34	1	1	5.0.14.0	3	19	Duration	stim	0	0	0	0	30	0	439	1	background-full.jpg	1	1	20	1	1	deer.jpg	1
050321	13:43:34	1	1	5.0.14.0	3	20	Duration	focus	0	0	3500	0	0	0	3500	1	background-full.jpg	1	1	20	1	0	0	0
050321	13:43:34	1	1	5.0.14.0	3	21	Duration	stim	0	0	0	0	0	0	650	1	background-full.jpg	1	1	19	1	2	tank.jpg	1
050321	13:43:34	1	1	5.0.14.0	3	22	Duration	focus	0	0	3500	0	0	0	3500	1	background-full.jpg	1	1	19	1	0	0	0
050321	13:43:34	1	1	5.0.14.0	3	23	Duration	stim	0	0	0	0	30	1	536	1	background-full.jpg	1	1	20	1	2	tank.jpg	1
050321	13:43:34	1	1	5.0.14.0	3	24	Duration	focus	0	0	5000	0	0	0	5000	1	background-full.jpg	1	1	20	1	0	0	0
