date	time	group	subject	blockcode	trialcode	picture.target.currentitem	values.stiminterval	latency	response	correct	values.score	values.stimduration	values.SSD	values.averageRT	values.errors
051621	18:24:34	1	1	Practice	focusPractice	deer.jpg	3500	3500	0	0	0	750	0	0	0
051621	18:24:34	1	1	Practice	stim	deer.jpg	3500	750	0	0	-1	750	0	0	1
051621	18:24:34	1	1	Practice	focusPractice	deer.jpg	3500	3500	0	0	-1	750	0	0	1
051621	18:24:34	1	1	Practice	stim	deer.jpg	3500	586	32	1	0	750	0	0	1
051621	18:24:34	1	1	Practice	focusPractice	deer.jpg	5000	5000	0	0	0	750	0	0	1
051621	18:24:34	1	1	Practice	stim	deer.jpg	5000	524	32	1	1	750	0	0	1
051621	18:24:34	1	1	Practice	focusPractice	deer.jpg	4500	4500	0	0	1	750	0	555	1
051621	18:24:34	1	1	Practice	stim	deer.jpg	4500	665	32	1	2	750	0	555	1
051621	18:24:34	1	1	Practice	focusPractice	deer.jpg	4500	4500	0	0	2	750	0	555	1
051621	18:24:34	1	1	Practice	stim	deer.jpg	4500	548	32	1	3	750	0	555	1
051621	18:24:34	1	1	Practice	focusPractice	deer.jpg	3500	3500	0	0	3	750	0	555	1
051621	18:24:34	1	1	Practice	stim	deer.jpg	3500	551	32	1	4	750	0	555	1
051621	18:24:34	1	1	Practice	focusPractice	deer.jpg	4500	4500	0	0	4	750	0	555	1
051621	18:24:34	1	1	Practice	stop	deer.jpg	4500	139	0	1	4	750	138,75	555	1
051621	18:24:34	1	1	Practice	stopsignal	deer.jpg	4500	611	0	1	5	750	138,75	555	1
051621	18:24:34	1	1	Practice	focusPractice	deer.jpg	4500	4500	0	0	5	750	138,75	555	1
051621	18:24:34	1	1	Practice	stop	deer.jpg	4500	139	0	1	5	750	138,75	555	1
051621	18:24:34	1	1	Practice	stopsignal	deer.jpg	4500	611	0	1	6	750	138,75	555	1
051621	18:24:34	1	1	Practice	focusPractice	deer.jpg	3000	3000	0	0	6	750	138,75	555	1
051621	18:24:34	1	1	Practice	stop	deer.jpg	3000	506	32	0	6	750	555	555	1
051621	18:24:34	1	1	Practice	stopsignal	deer.jpg	3000	195	0	1	5	750	555	555	2
051621	18:24:34	1	1	Practice	focusPractice	deer.jpg	3500	3500	0	0	5	750	555	555	2
051621	18:24:34	1	1	Practice	stim	tank.jpg	3500	644	30	1	6	750	555	555	2
051621	18:24:34	1	1	Practice	focusPractice	tank.jpg	5000	5000	0	0	6	750	555	555	2
051621	18:24:34	1	1	stopSignalPosition	focus	tank.jpg	5000	5000	0	0	6	750	555	586	0
051621	18:24:34	1	1	stopSignalPosition	stim	deer.jpg	5000	609	32	1	7	750	555	586	0
051621	18:24:34	1	1	stopSignalPosition	focus	deer.jpg	4500	4500	0	0	7	750	555	586	0
051621	18:24:34	1	1	stopSignalPosition	stop	deer.jpg	4500	293	0	1	7	750	293	586	0
051621	18:24:34	1	1	stopSignalPosition	stopsignal	deer.jpg	4500	230	32	0	6	750	293	586	1
051621	18:24:34	1	1	stopSignalPosition	focus	deer.jpg	3500	3500	0	0	6	750	293	586	1
051621	18:24:34	1	1	stopSignalPosition	stim	tank.jpg	3500	580	30	1	7	750	293	586	1
051621	18:24:34	1	1	stopSignalPosition	focus	tank.jpg	4000	4000	0	0	7	750	293	586	1
051621	18:24:34	1	1	stopSignalPosition	stim	tank.jpg	4000	602	30	1	8	750	293	586	1
051621	18:24:34	1	1	stopSignalPosition	focus	tank.jpg	5000	5000	0	0	8	750	293	586	1
051621	18:24:34	1	1	stopSignalPosition	stim	tank.jpg	5000	557	30	1	9	750	293	586	1
051621	18:24:34	1	1	stopSignalPosition	focus	tank.jpg	4000	4000	0	0	9	750	293	586	1
051621	18:24:34	1	1	stopSignalPosition	stim	deer.jpg	4000	606	32	1	10	750	293	586	1
051621	18:24:34	1	1	stopSignalPosition	focus	deer.jpg	3500	3500	0	0	10	750	293	586	1
051621	18:24:34	1	1	stopSignalPosition	stim	tank.jpg	3500	581	30	1	11	750	293	586	1
051621	18:24:34	1	1	stopSignalPosition	focus	tank.jpg	4500	4500	0	0	11	750	293	586	1
051621	18:24:34	1	1	stopSignalPosition	stop	tank.jpg	4500	147	0	1	11	750	146,5	586	1
051621	18:24:34	1	1	stopSignalPosition	stopsignal	tank.jpg	4500	604	0	1	12	750	146,5	586	1
051621	18:24:34	1	1	stopSignalPosition	focus	tank.jpg	3000	3000	0	0	12	750	146,5	586	1
051621	18:24:34	1	1	stopSignalPosition	stim	tank.jpg	3000	565	30	1	13	750	146,5	586	1
051621	18:24:34	1	1	stopSignalPosition	focus	tank.jpg	3500	3500	0	0	13	750	146,5	586	1
051621	18:24:34	1	1	stopSignalPosition	stop	tank.jpg	3500	293	0	1	13	750	293	586	1
051621	18:24:34	1	1	stopSignalPosition	stopsignal	tank.jpg	3500	457	0	1	14	750	293	586	1
051621	18:24:34	1	1	stopSignalPosition	focus	tank.jpg	5000	5000	0	0	14	750	293	586	1
051621	18:24:34	1	1	ManyTargets	focus	tank.jpg	5000	5000	0	0	14	750	293	586	0
051621	18:24:34	1	1	ManyTargets	stim	deer.jpg	5000	621	32	1	15	750	293	586	0
051621	18:24:34	1	1	ManyTargets	focus	deer.jpg	5000	5000	0	0	15	750	293	586	0
051621	18:24:34	1	1	ManyTargets	stim	tank.jpg	5000	531	30	1	16	750	293	586	0
051621	18:24:34	1	1	ManyTargets	focus	tank.jpg	4500	4500	0	0	16	750	293	586	0
051621	18:24:34	1	1	ManyTargets	stop	deer.jpg	4500	565	32	0	16	750	586	586	0
051621	18:24:34	1	1	ManyTargets	stopsignal	deer.jpg	4500	164	0	1	15	750	586	586	1
051621	18:24:34	1	1	ManyTargets	focus	deer.jpg	5000	5000	0	0	15	750	586	586	1
051621	18:24:34	1	1	ManyTargets	stop	tank.jpg	5000	293	0	1	15	750	293	586	1
051621	18:24:34	1	1	ManyTargets	stopsignal	tank.jpg	5000	399	30	0	14	750	293	586	2
051621	18:24:34	1	1	ManyTargets	focus	tank.jpg	3500	3500	0	0	14	750	293	586	2
051621	18:24:34	1	1	ManyTargets	stim	cat.png	3500	750	0	0	13	750	293	586	3
051621	18:24:34	1	1	ManyTargets	focus	cat.png	4500	4500	0	0	13	750	293	586	3
051621	18:24:34	1	1	ManyTargets	stim	cat.png	4500	750	0	0	12	750	293	586	4
051621	18:24:34	1	1	ManyTargets	focus	cat.png	4000	4000	0	0	12	750	293	586	4
051621	18:24:34	1	1	ManyTargets	stim	cat.png	4000	750	0	0	11	750	293	586	5
051621	18:24:34	1	1	ManyTargets	focus	cat.png	3000	3000	0	0	11	750	293	586	5
051621	18:24:34	1	1	ManyTargets	stim	tank.jpg	3000	750	0	0	10	750	293	586	6
051621	18:24:34	1	1	ManyTargets	focus	tank.jpg	4500	4500	0	0	10	750	293	586	6
051621	18:24:34	1	1	ManyTargets	stim	deer.jpg	4500	750	0	0	9	750	293	586	7
051621	18:24:34	1	1	ManyTargets	focus	deer.jpg	4500	4500	0	0	9	750	293	586	7
051621	18:24:34	1	1	ManyTargets	stop	tank.jpg	4500	586	0	1	9	750	586	586	7
051621	18:24:34	1	1	ManyTargets	stopsignal	tank.jpg	4500	164	0	1	10	750	586	586	7
051621	18:24:34	1	1	ManyTargets	focus	tank.jpg	5000	2495	Ctrl+'Q'	1	10	750	586	586	7
051621	18:34:54	1	1	Practice	focusPractice	deer.jpg	3000	2976	Ctrl+'Q'	1	0	750	0	0	0
051621	18:35:20	1	1	Practice	focusPractice	deer.jpg	3500	3500	0	0	0	750	0	0	0
051621	18:35:20	1	1	Practice	stim	deer.jpg	3500	641	32	1	1	750	0	0	0
051621	18:35:20	1	1	Practice	focusPractice	deer.jpg	5000	5000	0	0	1	750	0	0	0
051621	18:35:20	1	1	Practice	stim	tank.jpg	5000	645	30	1	2	750	0	0	0
051621	18:35:20	1	1	Practice	focusPractice	tank.jpg	4000	4000	0	0	2	750	0	0	0
051621	18:35:20	1	1	Practice	stim	tank.jpg	4000	562	30	1	3	750	0	0	0
051621	18:35:20	1	1	Practice	focusPractice	tank.jpg	4500	4500	0	0	3	750	0	616	0
051621	18:35:20	1	1	Practice	stim	tank.jpg	4500	750	0	0	2	750	0	616	1
051621	18:35:20	1	1	Practice	focusPractice	tank.jpg	5000	5000	0	0	2	750	0	616	1
051621	18:35:20	1	1	Practice	stop	deer.jpg	5000	510	32	0	2	750	616	616	1
051621	18:35:20	1	1	Practice	stopsignal	deer.jpg	5000	134	0	1	1	750	616	616	2
051621	18:35:20	1	1	Practice	focusPractice	deer.jpg	3500	3500	0	0	1	750	616	616	2
051621	18:35:20	1	1	Practice	stop	tank.jpg	3500	154	0	1	1	750	154	616	2
051621	18:35:20	1	1	Practice	stopsignal	tank.jpg	3500	596	0	1	2	750	154	616	2
051621	18:35:20	1	1	Practice	focusPractice	tank.jpg	3500	3500	0	0	2	750	154	616	2
051621	18:35:20	1	1	Practice	stim	tank.jpg	3500	750	0	0	1	750	154	616	3
051621	18:35:20	1	1	Practice	focusPractice	tank.jpg	4000	4000	0	0	1	750	154	616	3
051621	18:35:20	1	1	Practice	stim	tank.jpg	4000	504	30	1	2	750	154	616	3
051621	18:35:20	1	1	Practice	focusPractice	tank.jpg	4500	4500	0	0	2	750	154	616	3
051621	18:35:20	1	1	Practice	stim	deer.jpg	4500	547	32	1	3	750	154	616	3
051621	18:35:20	1	1	Practice	focusPractice	deer.jpg	3000	3000	0	0	3	750	154	616	3
051621	18:35:20	1	1	Practice	stop	deer.jpg	3000	308	0	1	3	750	308	616	3
051621	18:35:20	1	1	Practice	stopsignal	deer.jpg	3000	222	32	0	2	750	308	616	4
051621	18:35:20	1	1	Practice	focusPractice	deer.jpg	3000	3000	0	0	2	750	308	616	4
051621	18:35:20	1	1	stopSignalPosition	focus	deer.jpg	3500	3500	0	0	2	750	308	580	0
051621	18:35:20	1	1	stopSignalPosition	stop	tank.jpg	3500	290	0	1	2	750	290	580	0
051621	18:35:20	1	1	stopSignalPosition	stopsignal	tank.jpg	3500	207	30	0	1	750	290	580	1
051621	18:35:20	1	1	stopSignalPosition	focus	tank.jpg	4000	4000	0	0	1	750	290	580	1
051621	18:35:20	1	1	stopSignalPosition	stim	deer.jpg	4000	535	32	1	2	750	290	580	1
051621	18:35:20	1	1	stopSignalPosition	focus	deer.jpg	5000	5000	0	0	2	750	290	580	1
051621	18:35:20	1	1	stopSignalPosition	stim	deer.jpg	5000	545	32	1	3	750	290	580	1
051621	18:35:20	1	1	stopSignalPosition	focus	deer.jpg	5000	5000	0	0	3	750	290	580	1
051621	18:35:20	1	1	stopSignalPosition	stim	deer.jpg	5000	571	32	1	4	750	290	580	1
051621	18:35:20	1	1	stopSignalPosition	focus	deer.jpg	3500	3500	0	0	4	750	290	580	1
051621	18:35:20	1	1	stopSignalPosition	stim	deer.jpg	3500	452	32	1	5	750	290	580	1
051621	18:35:20	1	1	stopSignalPosition	focus	deer.jpg	3000	3000	0	0	5	750	290	580	1
051621	18:35:20	1	1	stopSignalPosition	stim	deer.jpg	3000	612	32	1	6	750	290	580	1
051621	18:35:20	1	1	stopSignalPosition	focus	deer.jpg	3500	3500	0	0	6	750	290	580	1
051621	18:35:20	1	1	stopSignalPosition	stim	deer.jpg	3500	443	17	0	5	750	290	580	2
051621	18:35:20	1	1	stopSignalPosition	focus	deer.jpg	4000	4000	0	0	5	750	290	580	2
051621	18:35:20	1	1	stopSignalPosition	stop	deer.jpg	4000	145	0	1	5	750	145	580	2
051621	18:35:20	1	1	stopSignalPosition	stopsignal	deer.jpg	4000	334	32	0	4	750	145	580	3
051621	18:35:20	1	1	stopSignalPosition	focus	deer.jpg	5000	5000	0	0	4	750	145	580	3
051621	18:35:20	1	1	stopSignalPosition	stop	deer.jpg	5000	478	32	0	4	750	580	580	3
051621	18:35:20	1	1	stopSignalPosition	stopsignal	deer.jpg	5000	170	0	1	3	750	580	580	4
051621	18:35:20	1	1	stopSignalPosition	focus	deer.jpg	3000	3000	0	0	3	750	580	580	4
051621	18:35:20	1	1	stopSignalPosition	stim	deer.jpg	3000	634	32	1	4	750	580	580	4
051621	18:35:20	1	1	stopSignalPosition	focus	deer.jpg	3500	3500	0	0	4	750	580	580	4
051621	18:35:20	1	1	ManyTargets	focus	deer.jpg	3000	3000	0	0	4	750	580	568	0
051621	18:35:20	1	1	ManyTargets	stim	deer.jpg	3000	526	32	1	5	750	580	568	0
051621	18:35:20	1	1	ManyTargets	focus	deer.jpg	4000	4000	0	0	5	750	580	568	0
051621	18:35:20	1	1	ManyTargets	stim	deer.jpg	4000	549	32	1	6	750	580	568	0
051621	18:35:20	1	1	ManyTargets	focus	deer.jpg	3000	3000	0	0	6	750	580	568	0
051621	18:35:20	1	1	ManyTargets	stim	cat.png	3000	539	30	0	5	750	580	568	1
051621	18:35:20	1	1	ManyTargets	focus	cat.png	4500	4500	0	0	5	750	580	568	1
051621	18:35:20	1	1	ManyTargets	stop	deer.jpg	4500	284	0	1	5	750	284	568	1
051621	18:35:20	1	1	ManyTargets	stopsignal	deer.jpg	4500	432	32	0	4	750	284	568	2
051621	18:35:20	1	1	ManyTargets	focus	deer.jpg	4000	4000	0	0	4	750	284	568	2
051621	18:35:20	1	1	ManyTargets	stop	cat.png	4000	568	0	1	4	750	568	568	2
051621	18:35:20	1	1	ManyTargets	stopsignal	cat.png	4000	182	0	1	5	750	568	568	2
051621	18:35:20	1	1	ManyTargets	focus	cat.png	3000	3000	0	0	5	750	568	568	2
051621	18:35:20	1	1	ManyTargets	stim	tank.jpg	3000	750	0	0	4	750	568	568	3
051621	18:35:20	1	1	ManyTargets	focus	tank.jpg	4000	4000	0	0	4	750	568	568	3
051621	18:35:20	1	1	ManyTargets	stim	tank.jpg	4000	589	30	1	5	750	568	568	3
051621	18:35:20	1	1	ManyTargets	focus	tank.jpg	4000	4000	0	0	5	750	568	568	3
051621	18:35:20	1	1	ManyTargets	stop	deer.jpg	4000	284	0	1	5	750	284	568	3
051621	18:35:20	1	1	ManyTargets	stopsignal	deer.jpg	4000	402	30	0	4	750	284	568	4
051621	18:35:20	1	1	ManyTargets	focus	deer.jpg	4000	4000	0	0	4	750	284	568	4
051621	18:35:20	1	1	ManyTargets	stim	deer.jpg	4000	738	32	1	5	750	284	568	4
051621	18:35:20	1	1	ManyTargets	focus	deer.jpg	4000	4000	0	0	5	750	284	568	4
051621	18:35:20	1	1	ManyTargets	stim	tank.jpg	4000	580	30	1	6	750	284	568	4
051621	18:35:20	1	1	ManyTargets	focus	tank.jpg	4500	4500	0	0	6	750	284	568	4
051621	18:40:47	1	1	Practice	focusPractice	deer.jpg	3500	3500	0	0	0	750	0	0	0
051621	18:40:47	1	1	Practice	stim	deer.jpg	3500	509	32	1	1	750	0	0	0
051621	18:40:47	1	1	Practice	focusPractice	deer.jpg	4500	4500	0	0	1	750	0	0	0
051621	18:40:47	1	1	Practice	stim	deer.jpg	4500	519	32	1	2	750	0	0	0
051621	18:40:47	1	1	Practice	focusPractice	deer.jpg	5000	5000	0	0	2	750	0	0	0
051621	18:40:47	1	1	Practice	stim	tank.jpg	5000	600	30	1	3	750	0	0	0
051621	18:40:47	1	1	Practice	focusPractice	tank.jpg	4000	4000	0	0	3	750	0	542,6666666666666287711	0
051621	18:40:47	1	1	Practice	stop	tank.jpg	4000	271	0	1	3	750	271,3333333333333143855	542,6666666666666287711	0
051621	18:40:47	1	1	Practice	stopsignal	tank.jpg	4000	479	0	1	4	750	271,3333333333333143855	542,6666666666666287711	0
051621	18:40:47	1	1	Practice	focusPractice	tank.jpg	5000	5000	0	0	4	750	271,3333333333333143855	542,6666666666666287711	0
051621	18:40:47	1	1	Practice	stop	tank.jpg	5000	271	0	1	4	750	271,3333333333333143855	542,6666666666666287711	0
051621	18:40:47	1	1	Practice	stopsignal	tank.jpg	5000	479	0	1	5	750	271,3333333333333143855	542,6666666666666287711	0
051621	18:40:47	1	1	Practice	focusPractice	tank.jpg	3000	3000	0	0	5	750	271,3333333333333143855	542,6666666666666287711	0
051621	18:40:47	1	1	Practice	stim	deer.jpg	3000	596	32	1	6	750	271,3333333333333143855	542,6666666666666287711	0
051621	18:40:47	1	1	Practice	focusPractice	deer.jpg	3000	3000	0	0	6	750	271,3333333333333143855	542,6666666666666287711	0
051621	18:40:47	1	1	Practice	stim	deer.jpg	3000	721	30	0	5	750	271,3333333333333143855	542,6666666666666287711	1
051621	18:40:47	1	1	Practice	focusPractice	deer.jpg	4000	4000	0	0	5	750	271,3333333333333143855	542,6666666666666287711	1
051621	18:40:47	1	1	Practice	stim	deer.jpg	4000	510	32	1	6	750	271,3333333333333143855	542,6666666666666287711	1
051621	18:40:47	1	1	Practice	focusPractice	deer.jpg	5000	5000	0	0	6	750	271,3333333333333143855	542,6666666666666287711	1
051621	18:40:47	1	1	Practice	stop	tank.jpg	5000	271	0	1	6	750	271,3333333333333143855	542,6666666666666287711	1
051621	18:40:47	1	1	Practice	stopsignal	tank.jpg	5000	479	0	1	7	750	271,3333333333333143855	542,6666666666666287711	1
051621	18:40:47	1	1	Practice	focusPractice	tank.jpg	4500	4500	0	0	7	750	271,3333333333333143855	542,6666666666666287711	1
051621	18:40:47	1	1	Practice	stim	deer.jpg	4500	627	32	1	8	750	271,3333333333333143855	542,6666666666666287711	1
051621	18:40:47	1	1	Practice	focusPractice	deer.jpg	4500	4500	0	0	8	750	271,3333333333333143855	542,6666666666666287711	1
051621	18:40:47	1	1	stopSignalPosition	focus	deer.jpg	4500	4500	0	0	8	750	271,3333333333333143855	560	0
051621	18:40:47	1	1	stopSignalPosition	stop	tank.jpg	4500	560	0	1	8	750	560	560	0
051621	18:40:47	1	1	stopSignalPosition	stopsignal	tank.jpg	4500	64	30	0	7	750	560	560	1
051621	18:40:47	1	1	stopSignalPosition	focus	tank.jpg	3500	3500	0	0	7	750	560	560	1
051621	18:40:47	1	1	stopSignalPosition	stim	deer.jpg	3500	536	32	1	8	750	560	560	1
051621	18:40:47	1	1	stopSignalPosition	focus	deer.jpg	5000	5000	0	0	8	750	560	560	1
051621	18:40:47	1	1	stopSignalPosition	stim	deer.jpg	5000	611	32	1	9	750	560	560	1
051621	18:40:47	1	1	stopSignalPosition	focus	deer.jpg	5000	5000	0	0	9	750	560	560	1
051621	18:40:47	1	1	stopSignalPosition	stim	tank.jpg	5000	647	30	1	10	750	560	560	1
051621	18:40:47	1	1	stopSignalPosition	focus	tank.jpg	4000	4000	0	0	10	750	560	560	1
051621	18:40:47	1	1	stopSignalPosition	stop	tank.jpg	4000	140	0	1	10	750	140	560	1
051621	18:40:47	1	1	stopSignalPosition	stopsignal	tank.jpg	4000	610	0	1	11	750	140	560	1
051621	18:40:47	1	1	stopSignalPosition	focus	tank.jpg	3000	3000	0	0	11	750	140	560	1
051621	18:40:47	1	1	stopSignalPosition	stim	tank.jpg	3000	750	0	0	10	750	140	560	2
051621	18:40:47	1	1	stopSignalPosition	focus	tank.jpg	3000	3000	0	0	10	750	140	560	2
051621	18:40:47	1	1	stopSignalPosition	stim	tank.jpg	3000	630	30	1	11	750	140	560	2
051621	18:40:47	1	1	stopSignalPosition	focus	tank.jpg	5000	5000	0	0	11	750	140	560	2
051621	18:40:47	1	1	stopSignalPosition	stim	tank.jpg	5000	750	0	0	10	750	140	560	3
051621	18:40:47	1	1	stopSignalPosition	focus	tank.jpg	3500	3500	0	0	10	750	140	560	3
051621	18:40:47	1	1	stopSignalPosition	stop	tank.jpg	3500	280	0	1	10	750	280	560	3
051621	18:40:47	1	1	stopSignalPosition	stopsignal	tank.jpg	3500	470	0	1	11	750	280	560	3
051621	18:40:47	1	1	stopSignalPosition	focus	tank.jpg	3500	3500	0	0	11	750	280	560	3
051621	18:40:47	1	1	stopSignalPosition	stim	deer.jpg	3500	565	32	1	12	750	280	560	3
051621	18:40:47	1	1	stopSignalPosition	focus	deer.jpg	3000	3000	0	0	12	750	280	560	3
051621	18:40:47	1	1	ManyTargets	focus	deer.jpg	5000	5000	0	0	12	750	280	577	0
051621	18:40:47	1	1	ManyTargets	stim	cat.png	5000	341	17	1	13	750	280	577	0
051621	18:40:47	1	1	ManyTargets	focus	cat.png	3500	3500	0	0	13	750	280	577	0
051621	18:40:47	1	1	ManyTargets	stim	tank.jpg	3500	750	0	0	12	750	280	577	1
051621	18:40:47	1	1	ManyTargets	focus	tank.jpg	3000	3000	0	0	12	750	280	577	1
051621	18:40:47	1	1	ManyTargets	stim	cat.png	3000	702	17	1	13	750	280	577	1
051621	18:40:47	1	1	ManyTargets	focus	cat.png	3500	3500	0	0	13	750	280	577	1
051621	18:40:47	1	1	ManyTargets	stim	cat.png	3500	750	0	0	12	750	280	577	2
051621	18:40:47	1	1	ManyTargets	focus	cat.png	3500	3500	0	0	12	750	280	577	2
051621	18:40:47	1	1	ManyTargets	stim	deer.jpg	3500	539	32	1	13	750	280	577	2
051621	18:40:47	1	1	ManyTargets	focus	deer.jpg	4000	4000	0	0	13	750	280	577	2
051621	18:40:47	1	1	ManyTargets	stim	deer.jpg	4000	750	0	0	12	750	280	577	3
051621	18:40:47	1	1	ManyTargets	focus	deer.jpg	5000	5000	0	0	12	750	280	577	3
051621	18:40:47	1	1	ManyTargets	stim	cat.png	5000	750	0	0	11	750	280	577	4
051621	18:40:47	1	1	ManyTargets	focus	cat.png	5000	5000	0	0	11	750	280	577	4
051621	18:40:47	1	1	ManyTargets	stop	tank.jpg	5000	144	0	1	11	750	144,25	577	4
051621	18:40:47	1	1	ManyTargets	stopsignal	tank.jpg	5000	212	31	0	10	750	144,25	577	5
051621	18:40:47	1	1	ManyTargets	focus	tank.jpg	3500	3500	0	0	10	750	144,25	577	5
051621	18:40:47	1	1	ManyTargets	stop	cat.png	3500	289	0	1	10	750	288,5	577	5
051621	18:40:47	1	1	ManyTargets	stopsignal	cat.png	3500	186	17	0	9	750	288,5	577	6
051621	18:40:47	1	1	ManyTargets	focus	cat.png	4000	4000	0	0	9	750	288,5	577	6
051621	18:40:47	1	1	ManyTargets	stim	tank.jpg	4000	750	0	0	8	750	288,5	577	7
051621	18:40:47	1	1	ManyTargets	focus	tank.jpg	4000	4000	0	0	8	750	288,5	577	7
